subject, block_type, block, condition, trial, right_offer, left_offer, offer_right_image, offer_left_image, exp_value_right, exp_value_left, exp_value_chosen, choice_location, choice_key, choice_card, unchosen_card, chosen_card_image, unchosen_card_image, rt, randomwalk_counter, exp_value1, exp_value2, exp_value3, exp_value4, reward
1, practice,1, vibration during choice,1,4,2, 8.jpg, 6.jpg,0.466504194,0.615232533,0.466504194, right,2,4,2, 8.jpg, 6.jpg,1.0087498,1,0.511076546,0.615232533,0.413504079,0.466504194,0
1, practice,1, vibration during choice,2,3,1, 7.jpg, 5.jpg,0.375335495,0.517796443,0.517796443, left,1,1,3, 5.jpg, 7.jpg,0.8197231,1,0.517796443,0.631199867,0.375335495,0.47234587,1
1, practice,1, vibration during choice,3,3,4, 7.jpg, 8.jpg,0.374984468,0.491193418,0.374984468, right,2,3,4, 7.jpg, 8.jpg,0.9237132,1,0.498939688,0.626315633,0.374984468,0.491193418,0
1, practice,1, vibration during choice,4,2,4, 6.jpg, 8.jpg,0.609226527,0.486122834,0.609226527, right,2,2,4, 6.jpg, 8.jpg,0.9391489,1,0.498193315,0.609226527,0.371343772,0.486122834,0
1, practice,1, vibration during choice,5,1,2, 5.jpg, 6.jpg,0.472267853,0.620106582,0.472267853, right,2,1,2, 5.jpg, 6.jpg,0.6172003,1,0.472267853,0.620106582,0.35386843,0.463675252,0
1, test,1, vibration during choice,1,1,2, 5.jpg, 6.jpg,0.511076546,0.615232533,0.511076546, right,2,1,2, 5.jpg, 6.jpg,1.1996435,1,0.511076546,0.615232533,0.413504079,0.466504194,0
1, test,1, vibration during choice,2,4,1, 8.jpg, 5.jpg,0.47234587,0.517796443,0.47234587, right,2,4,1, 8.jpg, 5.jpg,1.0863013,1,0.517796443,0.631199867,0.375335495,0.47234587,1
1, test,1, vibration during choice,3,4,2, 8.jpg, 6.jpg,0.491193418,0.626315633,0.491193418, right,2,4,2, 8.jpg, 6.jpg,0.8338142,1,0.498939688,0.626315633,0.374984468,0.491193418,0
1, test,1, vibration during choice,4,2,1, 6.jpg, 5.jpg,0.609226527,0.498193315,0.609226527, right,2,2,1, 6.jpg, 5.jpg,0.9888672,1,0.498193315,0.609226527,0.371343772,0.486122834,1
1, test,1, vibration during choice,5,3,4, 7.jpg, 8.jpg,0.35386843,0.463675252,0.35386843, right,2,3,4, 7.jpg, 8.jpg,1.290843,1,0.472267853,0.620106582,0.35386843,0.463675252,0
1, test,1, vibration during choice,6,2,1, 6.jpg, 5.jpg,0.609411022,0.48900464,0.609411022, right,2,2,1, 6.jpg, 5.jpg,1.0181412,1,0.48900464,0.609411022,0.353156918,0.444784776,1
1, test,1, vibration during choice,7,2,4, 6.jpg, 8.jpg,0.661106815,0.459669582,0.661106815, right,2,2,4, 6.jpg, 8.jpg,0.5989143,1,0.498922937,0.661106815,0.351148204,0.459669582,1
1, test,1, vibration during choice,8,3,1, 7.jpg, 5.jpg,0.385479761,0.523305174,0.523305174, left,1,1,3, 5.jpg, 7.jpg,2.1452133,1,0.523305174,0.661043011,0.385479761,0.445975487,0
1, test,1, vibration during choice,9,2,3, 6.jpg, 7.jpg,0.617130773,0.38403906,0.38403906, left,1,3,2, 7.jpg, 6.jpg,0.914047,1,0.538202722,0.617130773,0.38403906,0.477824508,1
1, test,1, vibration during choice,10,4,3, 8.jpg, 7.jpg,0.494179332,0.400369013,0.400369013, left,1,3,4, 7.jpg, 8.jpg,1.2500625,1,0.538742055,0.61305354,0.400369013,0.494179332,0
1, test,1, vibration during choice,11,2,4, 6.jpg, 8.jpg,0.627053837,0.442060048,0.627053837, right,2,2,4, 6.jpg, 8.jpg,0.6484621,1,0.576408806,0.627053837,0.389573429,0.442060048,0
1, test,1, vibration during choice,12,4,1, 8.jpg, 5.jpg,0.429884006,0.58170588,0.429884006, right,2,4,1, 8.jpg, 5.jpg,2.6864769,1,0.58170588,0.6084257,0.368726719,0.429884006,0
1, test,1, vibration during choice,13,1,4, 5.jpg, 8.jpg,0.578706679,0.451621205,0.578706679, right,2,1,4, 5.jpg, 8.jpg,0.9381411,1,0.578706679,0.597368238,0.375355878,0.451621205,1
1, test,1, vibration during choice,14,1,3, 5.jpg, 7.jpg,0.542007718,0.38842331,0.542007718, right,2,1,3, 5.jpg, 7.jpg,0.478753,1,0.542007718,0.603047222,0.38842331,0.453322749,1
1, test,1, vibration during choice,15,2,1, 6.jpg, 5.jpg,0.59667375,0.51169699,0.59667375, right,2,2,1, 6.jpg, 5.jpg,0.8914278,1,0.51169699,0.59667375,0.398928367,0.449059956,1
1, test,1, vibration during choice,16,1,3, 5.jpg, 7.jpg,0.513158928,0.371810296,0.513158928, right,2,1,3, 5.jpg, 7.jpg,0.5827437,1,0.513158928,0.577589974,0.371810296,0.445080478,1
1, test,1, vibration during choice,17,1,2, 5.jpg, 6.jpg,0.513426935,0.585694186,0.513426935, right,2,1,2, 5.jpg, 6.jpg,0.6151934,1,0.513426935,0.585694186,0.379887863,0.422775713,1
1, test,1, vibration during choice,18,2,3, 6.jpg, 7.jpg,0.54789599,0.373664559,0.54789599, right,2,2,3, 6.jpg, 7.jpg,0.5302105,1,0.505704724,0.54789599,0.373664559,0.418810463,0
1, test,1, vibration during choice,19,3,4, 7.jpg, 8.jpg,0.369915918,0.404711898,0.369915918, right,2,3,4, 7.jpg, 8.jpg,1.0629326,1,0.504573157,0.582335652,0.369915918,0.404711898,1
1, test,1, vibration during choice,20,4,2, 8.jpg, 6.jpg,0.429775493,0.588279021,0.588279021, left,1,2,4, 6.jpg, 8.jpg,1.1871252,1,0.511492418,0.588279021,0.34718102,0.429775493,1
1, test,1, vibration during choice,21,3,1, 7.jpg, 5.jpg,0.365459609,0.512951285,0.512951285, left,1,1,3, 5.jpg, 7.jpg,0.5362653,1,0.512951285,0.553509108,0.365459609,0.420212923,1
1, test,1, vibration during choice,22,1,4, 5.jpg, 8.jpg,0.539572991,0.410726764,0.539572991, right,2,1,4, 5.jpg, 8.jpg,0.3909493,1,0.539572991,0.552815737,0.364821817,0.410726764,1
1, test,1, vibration during choice,23,4,3, 8.jpg, 7.jpg,0.376882621,0.373035803,0.373035803, left,1,3,4, 7.jpg, 8.jpg,1.1400956,1,0.56095771,0.535255398,0.373035803,0.376882621,0
1, test,1, vibration during choice,24,1,2, 5.jpg, 6.jpg,0.575401102,0.524393705,0.575401102, right,2,1,2, 5.jpg, 6.jpg,0.5236685,1,0.575401102,0.524393705,0.364677663,0.358107826,0
1, test,1, vibration during choice,25,1,2, 5.jpg, 6.jpg,0.541014126,0.532040408,0.541014126, right,2,1,2, 5.jpg, 6.jpg,0.4544109,1,0.541014126,0.532040408,0.39083719,0.373729847,1
1, test,1, vibration during choice,26,3,4, 7.jpg, 8.jpg,0.371897574,0.398780507,0.371897574, right,2,3,4, 7.jpg, 8.jpg,1.9782649,1,0.536918816,0.511692898,0.371897574,0.398780507,0
1, test,1, vibration during choice,27,3,1, 7.jpg, 5.jpg,0.389383809,0.541079589,0.541079589, left,1,1,3, 5.jpg, 7.jpg,0.932225,1,0.541079589,0.54671574,0.389383809,0.405865749,1
1, test,1, vibration during choice,28,4,1, 8.jpg, 5.jpg,0.403418308,0.559641612,0.559641612, left,1,1,4, 5.jpg, 8.jpg,0.4562075,1,0.559641612,0.570750529,0.408417182,0.403418308,0
1, test,1, vibration during choice,29,2,1, 6.jpg, 5.jpg,0.54476025,0.566867971,0.566867971, left,1,1,2, 5.jpg, 6.jpg,0.9346533,1,0.566867971,0.54476025,0.383885215,0.398536524,0
1, test,1, vibration during choice,30,3,2, 7.jpg, 6.jpg,0.406860111,0.559260499,0.559260499, left,1,2,3, 6.jpg, 7.jpg,0.8429548,1,0.562069061,0.559260499,0.406860111,0.407780991,1
1, test,1, vibration during choice,31,3,4, 7.jpg, 8.jpg,0.389734908,0.40633374,0.389734908, right,2,3,4, 7.jpg, 8.jpg,1.2129303,1,0.557017169,0.570453061,0.389734908,0.40633374,0
1, test,1, vibration during choice,32,1,4, 5.jpg, 8.jpg,0.587964414,0.430319959,0.587964414, right,2,1,4, 5.jpg, 8.jpg,1.3118879,1,0.587964414,0.562455492,0.364845558,0.430319959,0
1, test,1, vibration during choice,33,4,3, 8.jpg, 7.jpg,0.469700007,0.38651511,0.469700007, right,2,4,3, 8.jpg, 7.jpg,2.4602376,1,0.569423526,0.583546956,0.38651511,0.469700007,1
1, test,1, vibration during choice,34,3,4, 7.jpg, 8.jpg,0.411760625,0.45608609,0.45608609, left,1,4,3, 8.jpg, 7.jpg,0.7568233,1,0.56834307,0.565200904,0.411760625,0.45608609,0
1, test,1, vibration during choice,35,4,2, 8.jpg, 6.jpg,0.497188985,0.567372701,0.567372701, left,1,2,4, 6.jpg, 8.jpg,0.7544696,1,0.599079702,0.567372701,0.404213812,0.497188985,0
1, test,1, vibration during choice,36,2,4, 6.jpg, 8.jpg,0.558903517,0.476236411,0.558903517, right,2,2,4, 6.jpg, 8.jpg,0.4523236,1,0.614921267,0.558903517,0.380656038,0.476236411,1
1, test,1, vibration during choice,37,4,3, 8.jpg, 7.jpg,0.509842719,0.352549374,0.509842719, right,2,4,3, 8.jpg, 7.jpg,0.5724223,1,0.628075493,0.545721743,0.352549374,0.509842719,1
1, test,1, vibration during choice,38,3,1, 7.jpg, 5.jpg,0.347063514,0.631242143,0.347063514, right,2,3,1, 7.jpg, 5.jpg,2.2519326,1,0.631242143,0.538071442,0.347063514,0.530542784,1
1, test,1, vibration during choice,39,3,1, 7.jpg, 5.jpg,0.341152187,0.600609567,0.341152187, right,2,3,1, 7.jpg, 5.jpg,0.6129705,1,0.600609567,0.562917382,0.341152187,0.525341883,0
1, test,1, vibration during choice,40,2,3, 6.jpg, 7.jpg,0.574174471,0.340254534,0.574174471, right,2,2,3, 6.jpg, 7.jpg,0.6086188,1,0.598478627,0.574174471,0.340254534,0.519319672,1
1, test,1, vibration during choice,41,2,4, 6.jpg, 8.jpg,0.580661228,0.531828439,0.580661228, right,2,2,4, 6.jpg, 8.jpg,1.2796061,1,0.60144404,0.580661228,0.358175358,0.531828439,1
1, test,1, vibration during choice,42,1,2, 5.jpg, 6.jpg,0.630195312,0.582970551,0.582970551, left,1,2,1, 6.jpg, 5.jpg,0.6051682,1,0.630195312,0.582970551,0.366861123,0.522351056,1
1, test,1, vibration during choice,43,1,3, 5.jpg, 7.jpg,0.628568645,0.357029746,0.357029746, left,1,3,1, 7.jpg, 5.jpg,1.5959004,1,0.628568645,0.572586617,0.357029746,0.532129282,0
1, test,1, vibration during choice,44,3,4, 7.jpg, 8.jpg,0.384631609,0.54344664,0.384631609, right,2,3,4, 7.jpg, 8.jpg,0.6070051,1,0.636994371,0.565568304,0.384631609,0.54344664,1
1, test,1, vibration during choice,45,2,1, 6.jpg, 5.jpg,0.5781911,0.650015763,0.5781911, right,2,2,1, 6.jpg, 5.jpg,0.7038312,1,0.650015763,0.5781911,0.386636695,0.52618086,0
1, test,1, vibration during choice,46,2,1, 6.jpg, 5.jpg,0.554193525,0.626001871,0.554193525, right,2,2,1, 6.jpg, 5.jpg,0.4157495,1,0.626001871,0.554193525,0.376640317,0.575008411,0
1, test,1, vibration during choice,47,4,1, 8.jpg, 5.jpg,0.546233567,0.606772055,0.546233567, right,2,4,1, 8.jpg, 5.jpg,1.4288949,1,0.606772055,0.585886385,0.329837755,0.546233567,0
1, test,1, vibration during choice,48,4,3, 8.jpg, 7.jpg,0.544792119,0.322472207,0.322472207, left,1,3,4, 7.jpg, 8.jpg,0.8859047,1,0.609756275,0.601875425,0.322472207,0.544792119,1
1, test,1, vibration during choice,49,1,4, 5.jpg, 8.jpg,0.606158462,0.559135463,0.606158462, right,2,1,4, 5.jpg, 8.jpg,2.5832541,1,0.606158462,0.595767883,0.298351175,0.559135463,0
1, test,1, vibration during choice,50,2,3, 6.jpg, 7.jpg,0.596690297,0.304980312,0.596690297, right,2,2,3, 6.jpg, 7.jpg,0.7633854,1,0.585330427,0.596690297,0.304980312,0.528689445,1
1, practice,2, vibration off,1,3,2, 11.jpg, 10.jpg,0.413504079,0.615232533,0.413504079, right,2,3,2, 11.jpg, 10.jpg,2.8219353,1,0.511076546,0.615232533,0.413504079,0.466504194,0
1, practice,2, vibration off,2,3,2, 11.jpg, 10.jpg,0.375335495,0.631199867,0.631199867, left,1,2,3, 10.jpg, 11.jpg,0.7158169,1,0.517796443,0.631199867,0.375335495,0.47234587,0
1, practice,2, vibration off,3,4,3, 12.jpg, 11.jpg,0.491193418,0.374984468,0.491193418, right,2,4,3, 12.jpg, 11.jpg,0.9773916,1,0.498939688,0.626315633,0.374984468,0.491193418,1
1, practice,2, vibration off,4,2,3, 10.jpg, 11.jpg,0.609226527,0.371343772,0.609226527, right,2,2,3, 10.jpg, 11.jpg,1.4722837,1,0.498193315,0.609226527,0.371343772,0.486122834,1
1, practice,2, vibration off,5,4,2, 12.jpg, 10.jpg,0.463675252,0.620106582,0.463675252, right,2,4,2, 12.jpg, 10.jpg,1.3688045,1,0.472267853,0.620106582,0.35386843,0.463675252,0
1, test,2, vibration off,1,1,4, 9.jpg, 12.jpg,0.511076546,0.466504194,0.466504194, left,1,4,1, 12.jpg, 9.jpg,1.8975716,1,0.511076546,0.615232533,0.413504079,0.466504194,0
1, test,2, vibration off,2,2,1, 10.jpg, 9.jpg,0.631199867,0.517796443,0.517796443, left,1,1,2, 9.jpg, 10.jpg,0.8135058,1,0.517796443,0.631199867,0.375335495,0.47234587,0
1, test,2, vibration off,3,1,3, 9.jpg, 11.jpg,0.498939688,0.374984468,0.374984468, left,1,3,1, 11.jpg, 9.jpg,0.7391262,1,0.498939688,0.626315633,0.374984468,0.491193418,0
1, test,2, vibration off,4,2,3, 10.jpg, 11.jpg,0.609226527,0.371343772,0.609226527, right,2,2,3, 10.jpg, 11.jpg,0.9555095,1,0.498193315,0.609226527,0.371343772,0.486122834,1
1, test,2, vibration off,5,1,2, 9.jpg, 10.jpg,0.472267853,0.620106582,0.620106582, left,1,2,1, 10.jpg, 9.jpg,0.7080123,1,0.472267853,0.620106582,0.35386843,0.463675252,1
1, test,2, vibration off,6,1,4, 9.jpg, 12.jpg,0.48900464,0.444784776,0.48900464, right,2,1,4, 9.jpg, 12.jpg,1.535965,1,0.48900464,0.609411022,0.353156918,0.444784776,1
1, test,2, vibration off,7,3,1, 11.jpg, 9.jpg,0.351148204,0.498922937,0.498922937, left,1,1,3, 9.jpg, 11.jpg,0.8758362,1,0.498922937,0.661106815,0.351148204,0.459669582,0
1, test,2, vibration off,8,3,4, 11.jpg, 12.jpg,0.385479761,0.445975487,0.385479761, right,2,3,4, 11.jpg, 12.jpg,0.9489408,1,0.523305174,0.661043011,0.385479761,0.445975487,0
1, test,2, vibration off,9,2,3, 10.jpg, 11.jpg,0.617130773,0.38403906,0.617130773, right,2,2,3, 10.jpg, 11.jpg,0.7369601,1,0.538202722,0.617130773,0.38403906,0.477824508,0
1, test,2, vibration off,10,4,1, 12.jpg, 9.jpg,0.494179332,0.538742055,0.494179332, right,2,4,1, 12.jpg, 9.jpg,2.3796886,1,0.538742055,0.61305354,0.400369013,0.494179332,0
1, test,2, vibration off,11,4,2, 12.jpg, 10.jpg,0.442060048,0.627053837,0.627053837, left,1,2,4, 10.jpg, 12.jpg,0.6840895,1,0.576408806,0.627053837,0.389573429,0.442060048,1
1, test,2, vibration off,12,4,2, 12.jpg, 10.jpg,0.429884006,0.6084257,0.6084257, left,1,2,4, 10.jpg, 12.jpg,1.2378577,1,0.58170588,0.6084257,0.368726719,0.429884006,1
1, test,2, vibration off,13,1,4, 9.jpg, 12.jpg,0.578706679,0.451621205,0.578706679, right,2,1,4, 9.jpg, 12.jpg,1.455611,1,0.578706679,0.597368238,0.375355878,0.451621205,0
1, test,2, vibration off,14,4,1, 12.jpg, 9.jpg,0.453322749,0.542007718,0.453322749, right,2,4,1, 12.jpg, 9.jpg,2.0485846,1,0.542007718,0.603047222,0.38842331,0.453322749,0
1, test,2, vibration off,15,3,2, 11.jpg, 10.jpg,0.398928367,0.59667375,0.59667375, left,1,2,3, 10.jpg, 11.jpg,0.8493409,1,0.51169699,0.59667375,0.398928367,0.449059956,1
1, test,2, vibration off,16,4,2, 12.jpg, 10.jpg,0.445080478,0.577589974,0.577589974, left,1,2,4, 10.jpg, 12.jpg,0.80297,1,0.513158928,0.577589974,0.371810296,0.445080478,0
1, test,2, vibration off,17,3,4, 11.jpg, 12.jpg,0.379887863,0.422775713,0.379887863, right,2,3,4, 11.jpg, 12.jpg,1.5201873,1,0.513426935,0.585694186,0.379887863,0.422775713,0
1, test,2, vibration off,18,1,3, 9.jpg, 11.jpg,0.505704724,0.373664559,0.505704724, right,2,1,3, 9.jpg, 11.jpg,0.7801005,1,0.505704724,0.54789599,0.373664559,0.418810463,0
1, test,2, vibration off,19,1,2, 9.jpg, 10.jpg,0.504573157,0.582335652,0.582335652, left,1,2,1, 10.jpg, 9.jpg,0.6405843,1,0.504573157,0.582335652,0.369915918,0.404711898,1
1, test,2, vibration off,20,4,2, 12.jpg, 10.jpg,0.429775493,0.588279021,0.588279021, left,1,2,4, 10.jpg, 12.jpg,0.6169427,1,0.511492418,0.588279021,0.34718102,0.429775493,1
1, test,2, vibration off,21,4,3, 12.jpg, 11.jpg,0.420212923,0.365459609,0.420212923, right,2,4,3, 12.jpg, 11.jpg,0.760851,1,0.512951285,0.553509108,0.365459609,0.420212923,0
1, test,2, vibration off,22,2,3, 10.jpg, 11.jpg,0.552815737,0.364821817,0.552815737, right,2,2,3, 10.jpg, 11.jpg,0.4896449,1,0.539572991,0.552815737,0.364821817,0.410726764,1
1, test,2, vibration off,23,3,2, 11.jpg, 10.jpg,0.373035803,0.535255398,0.535255398, left,1,2,3, 10.jpg, 11.jpg,0.572588,1,0.56095771,0.535255398,0.373035803,0.376882621,1
1, test,2, vibration off,24,3,1, 11.jpg, 9.jpg,0.364677663,0.575401102,0.575401102, left,1,1,3, 9.jpg, 11.jpg,0.7805852,1,0.575401102,0.524393705,0.364677663,0.358107826,0
1, test,2, vibration off,25,1,3, 9.jpg, 11.jpg,0.541014126,0.39083719,0.39083719, left,1,3,1, 11.jpg, 9.jpg,0.7526285,1,0.541014126,0.532040408,0.39083719,0.373729847,0
1, test,2, vibration off,26,4,2, 12.jpg, 10.jpg,0.398780507,0.511692898,0.511692898, left,1,2,4, 10.jpg, 12.jpg,0.5961183,1,0.536918816,0.511692898,0.371897574,0.398780507,0
1, test,2, vibration off,27,2,4, 10.jpg, 12.jpg,0.54671574,0.405865749,0.54671574, right,2,2,4, 10.jpg, 12.jpg,0.4203318,1,0.541079589,0.54671574,0.389383809,0.405865749,1
1, test,2, vibration off,28,4,1, 12.jpg, 9.jpg,0.403418308,0.559641612,0.403418308, right,2,4,1, 12.jpg, 9.jpg,0.6807835,1,0.559641612,0.570750529,0.408417182,0.403418308,0
1, test,2, vibration off,29,1,4, 9.jpg, 12.jpg,0.566867971,0.398536524,0.398536524, left,1,4,1, 12.jpg, 9.jpg,0.9396605,1,0.566867971,0.54476025,0.383885215,0.398536524,0
1, test,2, vibration off,30,1,4, 9.jpg, 12.jpg,0.562069061,0.407780991,0.562069061, right,2,1,4, 9.jpg, 12.jpg,0.4041203,1,0.562069061,0.559260499,0.406860111,0.407780991,0
1, test,2, vibration off,31,3,1, 11.jpg, 9.jpg,0.389734908,0.557017169,0.389734908, right,2,3,1, 11.jpg, 9.jpg,0.9510586,1,0.557017169,0.570453061,0.389734908,0.40633374,0
1, test,2, vibration off,32,4,2, 12.jpg, 10.jpg,0.430319959,0.562455492,0.562455492, left,1,2,4, 10.jpg, 12.jpg,0.7093321,1,0.587964414,0.562455492,0.364845558,0.430319959,1
1, test,2, vibration off,33,4,1, 12.jpg, 9.jpg,0.469700007,0.569423526,0.469700007, right,2,4,1, 12.jpg, 9.jpg,0.9111443,1,0.569423526,0.583546956,0.38651511,0.469700007,1
1, test,2, vibration off,34,2,1, 10.jpg, 9.jpg,0.565200904,0.56834307,0.565200904, right,2,2,1, 10.jpg, 9.jpg,0.600446,1,0.56834307,0.565200904,0.411760625,0.45608609,0
1, test,2, vibration off,35,1,4, 9.jpg, 12.jpg,0.599079702,0.497188985,0.497188985, left,1,4,1, 12.jpg, 9.jpg,0.4120627,1,0.599079702,0.567372701,0.404213812,0.497188985,0
1, test,2, vibration off,36,4,3, 12.jpg, 11.jpg,0.476236411,0.380656038,0.476236411, right,2,4,3, 12.jpg, 11.jpg,0.4880771,1,0.614921267,0.558903517,0.380656038,0.476236411,1
1, test,2, vibration off,37,3,4, 11.jpg, 12.jpg,0.352549374,0.509842719,0.509842719, left,1,4,3, 12.jpg, 11.jpg,0.4399814,1,0.628075493,0.545721743,0.352549374,0.509842719,0
1, test,2, vibration off,38,1,4, 9.jpg, 12.jpg,0.631242143,0.530542784,0.530542784, left,1,4,1, 12.jpg, 9.jpg,0.7657383,1,0.631242143,0.538071442,0.347063514,0.530542784,1
1, test,2, vibration off,39,4,3, 12.jpg, 11.jpg,0.525341883,0.341152187,0.525341883, right,2,4,3, 12.jpg, 11.jpg,0.4557033,1,0.600609567,0.562917382,0.341152187,0.525341883,1
1, test,2, vibration off,40,1,2, 9.jpg, 10.jpg,0.598478627,0.574174471,0.574174471, left,1,2,1, 10.jpg, 9.jpg,0.5239015,1,0.598478627,0.574174471,0.340254534,0.519319672,0
1, test,2, vibration off,41,2,1, 10.jpg, 9.jpg,0.580661228,0.60144404,0.580661228, right,2,2,1, 10.jpg, 9.jpg,0.3999863,1,0.60144404,0.580661228,0.358175358,0.531828439,1
1, test,2, vibration off,42,1,3, 9.jpg, 11.jpg,0.630195312,0.366861123,0.630195312, right,2,1,3, 9.jpg, 11.jpg,0.5966496,1,0.630195312,0.582970551,0.366861123,0.522351056,0
1, test,2, vibration off,43,4,2, 12.jpg, 10.jpg,0.532129282,0.572586617,0.572586617, left,1,2,4, 10.jpg, 12.jpg,1.4192482,1,0.628568645,0.572586617,0.357029746,0.532129282,1
1, test,2, vibration off,44,3,2, 11.jpg, 10.jpg,0.384631609,0.565568304,0.565568304, left,1,2,3, 10.jpg, 11.jpg,0.4570831,1,0.636994371,0.565568304,0.384631609,0.54344664,1
1, test,2, vibration off,45,2,1, 10.jpg, 9.jpg,0.5781911,0.650015763,0.5781911, right,2,2,1, 10.jpg, 9.jpg,0.4176741,1,0.650015763,0.5781911,0.386636695,0.52618086,1
1, test,2, vibration off,46,1,4, 9.jpg, 12.jpg,0.626001871,0.575008411,0.575008411, left,1,4,1, 12.jpg, 9.jpg,0.7560229,1,0.626001871,0.554193525,0.376640317,0.575008411,1
1, test,2, vibration off,47,2,3, 10.jpg, 11.jpg,0.585886385,0.329837755,0.585886385, right,2,2,3, 10.jpg, 11.jpg,0.4445509,1,0.606772055,0.585886385,0.329837755,0.546233567,1
1, test,2, vibration off,48,2,3, 10.jpg, 11.jpg,0.601875425,0.322472207,0.601875425, right,2,2,3, 10.jpg, 11.jpg,0.4512279,1,0.609756275,0.601875425,0.322472207,0.544792119,1
1, test,2, vibration off,49,2,4, 10.jpg, 12.jpg,0.595767883,0.559135463,0.595767883, right,2,2,4, 10.jpg, 12.jpg,0.6707502,1,0.606158462,0.595767883,0.298351175,0.559135463,1
1, test,2, vibration off,50,3,1, 11.jpg, 9.jpg,0.304980312,0.585330427,0.585330427, left,1,1,3, 9.jpg, 11.jpg,1.1152284,1,0.585330427,0.596690297,0.304980312,0.528689445,1
1, practice,3, vibration during outcome,1,2,4, 2.jpg, 4.jpg,0.615232533,0.466504194,0.615232533, right,2,2,4, 2.jpg, 4.jpg,1.1964754,1,0.511076546,0.615232533,0.413504079,0.466504194,0
1, practice,3, vibration during outcome,2,3,1, 3.jpg, 1.jpg,0.375335495,0.517796443,0.517796443, left,1,1,3, 1.jpg, 3.jpg,0.5786646,1,0.517796443,0.631199867,0.375335495,0.47234587,0
1, practice,3, vibration during outcome,3,1,2, 1.jpg, 2.jpg,0.498939688,0.626315633,0.626315633, left,1,2,1, 2.jpg, 1.jpg,1.8986032,1,0.498939688,0.626315633,0.374984468,0.491193418,1
1, practice,3, vibration during outcome,4,2,3, 2.jpg, 3.jpg,0.609226527,0.371343772,0.371343772, left,1,3,2, 3.jpg, 2.jpg,1.0601186,1,0.498193315,0.609226527,0.371343772,0.486122834,0
1, practice,3, vibration during outcome,5,3,4, 3.jpg, 4.jpg,0.35386843,0.463675252,0.463675252, left,1,4,3, 4.jpg, 3.jpg,0.8091093,1,0.472267853,0.620106582,0.35386843,0.463675252,1
1, test,3, vibration during outcome,1,1,3, 1.jpg, 3.jpg,0.511076546,0.413504079,0.413504079, left,1,3,1, 3.jpg, 1.jpg,1.0124107,1,0.511076546,0.615232533,0.413504079,0.466504194,0
1, test,3, vibration during outcome,2,1,3, 1.jpg, 3.jpg,0.517796443,0.375335495,0.517796443, right,2,1,3, 1.jpg, 3.jpg,0.6742313,1,0.517796443,0.631199867,0.375335495,0.47234587,0
1, test,3, vibration during outcome,3,2,4, 2.jpg, 4.jpg,0.626315633,0.491193418,0.491193418, left,1,4,2, 4.jpg, 2.jpg,0.5089194,1,0.498939688,0.626315633,0.374984468,0.491193418,1
1, test,3, vibration during outcome,4,3,2, 3.jpg, 2.jpg,0.371343772,0.609226527,0.609226527, left,1,2,3, 2.jpg, 3.jpg,0.6804897,1,0.498193315,0.609226527,0.371343772,0.486122834,1
1, test,3, vibration during outcome,5,3,2, 3.jpg, 2.jpg,0.35386843,0.620106582,0.620106582, left,1,2,3, 2.jpg, 3.jpg,0.6427768,1,0.472267853,0.620106582,0.35386843,0.463675252,1
1, test,3, vibration during outcome,6,4,2, 4.jpg, 2.jpg,0.444784776,0.609411022,0.609411022, left,1,2,4, 2.jpg, 4.jpg,1.0145397,1,0.48900464,0.609411022,0.353156918,0.444784776,1
1, test,3, vibration during outcome,7,3,4, 3.jpg, 4.jpg,0.351148204,0.459669582,0.459669582, left,1,4,3, 4.jpg, 3.jpg,0.8386076,1,0.498922937,0.661106815,0.351148204,0.459669582,1
1, test,3, vibration during outcome,8,1,3, 1.jpg, 3.jpg,0.523305174,0.385479761,0.523305174, right,2,1,3, 1.jpg, 3.jpg,1.6591684,1,0.523305174,0.661043011,0.385479761,0.445975487,0
1, test,3, vibration during outcome,9,3,1, 3.jpg, 1.jpg,0.38403906,0.538202722,0.38403906, right,2,3,1, 3.jpg, 1.jpg,0.628015,1,0.538202722,0.617130773,0.38403906,0.477824508,0
1, test,3, vibration during outcome,10,3,4, 3.jpg, 4.jpg,0.400369013,0.494179332,0.494179332, left,1,4,3, 4.jpg, 3.jpg,0.8197914,1,0.538742055,0.61305354,0.400369013,0.494179332,0
1, test,3, vibration during outcome,11,3,2, 3.jpg, 2.jpg,0.389573429,0.627053837,0.627053837, left,1,2,3, 2.jpg, 3.jpg,0.4971405,1,0.576408806,0.627053837,0.389573429,0.442060048,0
1, test,3, vibration during outcome,12,1,2, 1.jpg, 2.jpg,0.58170588,0.6084257,0.6084257, left,1,2,1, 2.jpg, 1.jpg,0.7344193,1,0.58170588,0.6084257,0.368726719,0.429884006,0
1, test,3, vibration during outcome,13,4,3, 4.jpg, 3.jpg,0.451621205,0.375355878,0.451621205, right,2,4,3, 4.jpg, 3.jpg,0.7236924,1,0.578706679,0.597368238,0.375355878,0.451621205,1
1, test,3, vibration during outcome,14,3,1, 3.jpg, 1.jpg,0.38842331,0.542007718,0.38842331, right,2,3,1, 3.jpg, 1.jpg,1.0923754,1,0.542007718,0.603047222,0.38842331,0.453322749,0
1, test,3, vibration during outcome,15,2,1, 2.jpg, 1.jpg,0.59667375,0.51169699,0.59667375, right,2,2,1, 2.jpg, 1.jpg,1.1362221,1,0.51169699,0.59667375,0.398928367,0.449059956,0
1, test,3, vibration during outcome,16,4,2, 4.jpg, 2.jpg,0.445080478,0.577589974,0.445080478, right,2,4,2, 4.jpg, 2.jpg,0.4235441,1,0.513158928,0.577589974,0.371810296,0.445080478,1
1, test,3, vibration during outcome,17,4,3, 4.jpg, 3.jpg,0.422775713,0.379887863,0.422775713, right,2,4,3, 4.jpg, 3.jpg,0.4107134,1,0.513426935,0.585694186,0.379887863,0.422775713,0
1, test,3, vibration during outcome,18,2,1, 2.jpg, 1.jpg,0.54789599,0.505704724,0.54789599, right,2,2,1, 2.jpg, 1.jpg,0.7149329,1,0.505704724,0.54789599,0.373664559,0.418810463,1
1, test,3, vibration during outcome,19,4,2, 4.jpg, 2.jpg,0.404711898,0.582335652,0.404711898, right,2,4,2, 4.jpg, 2.jpg,0.6083147,1,0.504573157,0.582335652,0.369915918,0.404711898,0
1, test,3, vibration during outcome,20,4,1, 4.jpg, 1.jpg,0.429775493,0.511492418,0.429775493, right,2,4,1, 4.jpg, 1.jpg,0.5757284,1,0.511492418,0.588279021,0.34718102,0.429775493,1
1, test,3, vibration during outcome,21,1,2, 1.jpg, 2.jpg,0.512951285,0.553509108,0.553509108, left,1,2,1, 2.jpg, 1.jpg,0.474957,1,0.512951285,0.553509108,0.365459609,0.420212923,0
1, test,3, vibration during outcome,22,2,4, 2.jpg, 4.jpg,0.552815737,0.410726764,0.410726764, left,1,4,2, 4.jpg, 2.jpg,0.746202,1,0.539572991,0.552815737,0.364821817,0.410726764,0
1, test,3, vibration during outcome,23,3,1, 3.jpg, 1.jpg,0.373035803,0.56095771,0.56095771, left,1,1,3, 1.jpg, 3.jpg,0.4405183,1,0.56095771,0.535255398,0.373035803,0.376882621,0
1, test,3, vibration during outcome,24,2,1, 2.jpg, 1.jpg,0.524393705,0.575401102,0.524393705, right,2,2,1, 2.jpg, 1.jpg,0.5274382,1,0.575401102,0.524393705,0.364677663,0.358107826,0
1, test,3, vibration during outcome,25,3,2, 3.jpg, 2.jpg,0.39083719,0.532040408,0.532040408, left,1,2,3, 2.jpg, 3.jpg,0.7115749,1,0.541014126,0.532040408,0.39083719,0.373729847,0
1, test,3, vibration during outcome,26,1,2, 1.jpg, 2.jpg,0.536918816,0.511692898,0.536918816, right,2,1,2, 1.jpg, 2.jpg,0.6282279,1,0.536918816,0.511692898,0.371897574,0.398780507,1
1, test,3, vibration during outcome,27,4,3, 4.jpg, 3.jpg,0.405865749,0.389383809,0.405865749, right,2,4,3, 4.jpg, 3.jpg,0.5652385,1,0.541079589,0.54671574,0.389383809,0.405865749,0
1, test,3, vibration during outcome,28,2,4, 2.jpg, 4.jpg,0.570750529,0.403418308,0.403418308, left,1,4,2, 4.jpg, 2.jpg,0.6563025,1,0.559641612,0.570750529,0.408417182,0.403418308,0
1, test,3, vibration during outcome,29,2,1, 2.jpg, 1.jpg,0.54476025,0.566867971,0.566867971, left,1,1,2, 1.jpg, 2.jpg,0.3751685,1,0.566867971,0.54476025,0.383885215,0.398536524,0
1, test,3, vibration during outcome,30,2,3, 2.jpg, 3.jpg,0.559260499,0.406860111,0.406860111, left,1,3,2, 3.jpg, 2.jpg,0.895911,1,0.562069061,0.559260499,0.406860111,0.407780991,0
1, test,3, vibration during outcome,31,1,2, 1.jpg, 2.jpg,0.557017169,0.570453061,0.557017169, right,2,1,2, 1.jpg, 2.jpg,0.4405339,1,0.557017169,0.570453061,0.389734908,0.40633374,1
1, test,3, vibration during outcome,32,2,3, 2.jpg, 3.jpg,0.562455492,0.364845558,0.364845558, left,1,3,2, 3.jpg, 2.jpg,1.0462851,1,0.587964414,0.562455492,0.364845558,0.430319959,0
1, test,3, vibration during outcome,33,3,1, 3.jpg, 1.jpg,0.38651511,0.569423526,0.569423526, left,1,1,3, 1.jpg, 3.jpg,0.3525753,1,0.569423526,0.583546956,0.38651511,0.469700007,0
1, test,3, vibration during outcome,34,1,3, 1.jpg, 3.jpg,0.56834307,0.411760625,0.56834307, right,2,1,3, 1.jpg, 3.jpg,0.3731397,1,0.56834307,0.565200904,0.411760625,0.45608609,0
1, test,3, vibration during outcome,35,3,1, 3.jpg, 1.jpg,0.404213812,0.599079702,0.404213812, right,2,3,1, 3.jpg, 1.jpg,0.3492491,1,0.599079702,0.567372701,0.404213812,0.497188985,1
1, test,3, vibration during outcome,36,1,4, 1.jpg, 4.jpg,0.614921267,0.476236411,0.614921267, right,2,1,4, 1.jpg, 4.jpg,1.2709335,1,0.614921267,0.558903517,0.380656038,0.476236411,0
1, test,3, vibration during outcome,37,1,4, 1.jpg, 4.jpg,0.628075493,0.509842719,0.509842719, left,1,4,1, 4.jpg, 1.jpg,0.6650452,1,0.628075493,0.545721743,0.352549374,0.509842719,0
1, test,3, vibration during outcome,38,3,1, 3.jpg, 1.jpg,0.347063514,0.631242143,0.347063514, right,2,3,1, 3.jpg, 1.jpg,0.3765163,1,0.631242143,0.538071442,0.347063514,0.530542784,0
1, test,3, vibration during outcome,39,2,4, 2.jpg, 4.jpg,0.562917382,0.525341883,0.525341883, left,1,4,2, 4.jpg, 2.jpg,0.6168555,1,0.600609567,0.562917382,0.341152187,0.525341883,1
1, test,3, vibration during outcome,40,2,4, 2.jpg, 4.jpg,0.574174471,0.519319672,0.519319672, left,1,4,2, 4.jpg, 2.jpg,0.4681763,1,0.598478627,0.574174471,0.340254534,0.519319672,1
1, test,3, vibration during outcome,41,4,3, 4.jpg, 3.jpg,0.531828439,0.358175358,0.531828439, right,2,4,3, 4.jpg, 3.jpg,0.3553681,1,0.60144404,0.580661228,0.358175358,0.531828439,1
1, test,3, vibration during outcome,42,3,4, 3.jpg, 4.jpg,0.366861123,0.522351056,0.522351056, left,1,4,3, 4.jpg, 3.jpg,0.3872184,1,0.630195312,0.582970551,0.366861123,0.522351056,1
1, test,3, vibration during outcome,43,4,2, 4.jpg, 2.jpg,0.532129282,0.572586617,0.532129282, right,2,4,2, 4.jpg, 2.jpg,0.380065,1,0.628568645,0.572586617,0.357029746,0.532129282,0
1, test,3, vibration during outcome,44,3,2, 3.jpg, 2.jpg,0.384631609,0.565568304,0.565568304, left,1,2,3, 2.jpg, 3.jpg,0.4528664,1,0.636994371,0.565568304,0.384631609,0.54344664,1
1, test,3, vibration during outcome,45,3,4, 3.jpg, 4.jpg,0.386636695,0.52618086,0.52618086, left,1,4,3, 4.jpg, 3.jpg,0.5128818,1,0.650015763,0.5781911,0.386636695,0.52618086,1
1, test,3, vibration during outcome,46,3,2, 3.jpg, 2.jpg,0.376640317,0.554193525,0.554193525, left,1,2,3, 2.jpg, 3.jpg,0.4788198,1,0.626001871,0.554193525,0.376640317,0.575008411,1
1, test,3, vibration during outcome,47,4,1, 4.jpg, 1.jpg,0.546233567,0.606772055,0.546233567, right,2,4,1, 4.jpg, 1.jpg,0.4747989,1,0.606772055,0.585886385,0.329837755,0.546233567,1
1, test,3, vibration during outcome,48,3,4, 3.jpg, 4.jpg,0.322472207,0.544792119,0.544792119, left,1,4,3, 4.jpg, 3.jpg,0.4929623,1,0.609756275,0.601875425,0.322472207,0.544792119,0
1, test,3, vibration during outcome,49,4,1, 4.jpg, 1.jpg,0.559135463,0.606158462,0.559135463, right,2,4,1, 4.jpg, 1.jpg,0.4263159,1,0.606158462,0.595767883,0.298351175,0.559135463,0
1, test,3, vibration during outcome,50,3,1, 3.jpg, 1.jpg,0.304980312,0.585330427,0.585330427, left,1,1,3, 1.jpg, 3.jpg,0.799843,1,0.585330427,0.596690297,0.304980312,0.528689445,1
2, practice,1, vibration during outcome,1,3,2, 11.jpg, 10.jpg,0.584847675,0.332201416,0.332201416, left,1,2,3, 10.jpg, 11.jpg,0.6542504,2,0.167787674,0.332201416,0.584847675,0.302670058,1
2, practice,1, vibration during outcome,2,2,3, 10.jpg, 11.jpg,0.355471562,0.582595424,0.355471562, right,2,2,3, 10.jpg, 11.jpg,1.0590696,2,0.176264347,0.355471562,0.582595424,0.290755999,1
2, practice,1, vibration during outcome,3,3,1, 11.jpg, 9.jpg,0.578794293,0.206677553,0.578794293, right,2,3,1, 11.jpg, 9.jpg,1.0699521,2,0.206677553,0.3490424,0.578794293,0.275426328,1
2, practice,1, vibration during outcome,4,1,2, 9.jpg, 10.jpg,0.216551625,0.358181966,0.358181966, left,1,2,1, 10.jpg, 9.jpg,0.6872156,2,0.216551625,0.358181966,0.569745321,0.268568422,0
2, practice,1, vibration during outcome,5,1,3, 9.jpg, 11.jpg,0.21991786,0.582527891,0.21991786, right,2,1,3, 9.jpg, 11.jpg,0.6145104,2,0.21991786,0.364707579,0.582527891,0.302042001,0
2, test,1, vibration during outcome,1,3,1, 11.jpg, 9.jpg,0.584847675,0.167787674,0.584847675, right,2,3,1, 11.jpg, 9.jpg,0.5919614,2,0.167787674,0.332201416,0.584847675,0.302670058,1
2, test,1, vibration during outcome,2,1,4, 9.jpg, 12.jpg,0.176264347,0.290755999,0.290755999, left,1,4,1, 12.jpg, 9.jpg,0.9259914,2,0.176264347,0.355471562,0.582595424,0.290755999,0
2, test,1, vibration during outcome,3,3,4, 11.jpg, 12.jpg,0.578794293,0.275426328,0.578794293, right,2,3,4, 11.jpg, 12.jpg,0.7237657,2,0.206677553,0.3490424,0.578794293,0.275426328,1
2, test,1, vibration during outcome,4,1,2, 9.jpg, 10.jpg,0.216551625,0.358181966,0.216551625, right,2,1,2, 9.jpg, 10.jpg,0.9719515,2,0.216551625,0.358181966,0.569745321,0.268568422,0
2, test,1, vibration during outcome,5,1,4, 9.jpg, 12.jpg,0.21991786,0.302042001,0.302042001, left,1,4,1, 12.jpg, 9.jpg,0.7149681,2,0.21991786,0.364707579,0.582527891,0.302042001,0
2, test,1, vibration during outcome,6,1,4, 9.jpg, 12.jpg,0.209090036,0.336540119,0.336540119, left,1,4,1, 12.jpg, 9.jpg,0.4953763,2,0.209090036,0.3895513,0.587455063,0.336540119,0
2, test,1, vibration during outcome,7,2,3, 10.jpg, 11.jpg,0.39060737,0.582464681,0.39060737, right,2,2,3, 10.jpg, 11.jpg,0.6762067,2,0.215508938,0.39060737,0.582464681,0.363378709,0
2, test,1, vibration during outcome,8,2,4, 10.jpg, 12.jpg,0.430440014,0.369794555,0.430440014, right,2,2,4, 10.jpg, 12.jpg,0.7175165,2,0.219868403,0.430440014,0.545053358,0.369794555,0
2, test,1, vibration during outcome,9,1,3, 9.jpg, 11.jpg,0.223820368,0.530883085,0.223820368, right,2,1,3, 9.jpg, 11.jpg,1.2384298,2,0.223820368,0.4539861,0.530883085,0.365747455,0
2, test,1, vibration during outcome,10,3,1, 11.jpg, 9.jpg,0.507816291,0.25320591,0.25320591, left,1,1,3, 9.jpg, 11.jpg,0.4700771,2,0.25320591,0.485995524,0.507816291,0.36426522,0
2, test,1, vibration during outcome,11,1,2, 9.jpg, 10.jpg,0.272116099,0.489357893,0.272116099, right,2,1,2, 9.jpg, 10.jpg,1.0085306,2,0.272116099,0.489357893,0.494989907,0.378430477,0
2, test,1, vibration during outcome,12,3,2, 11.jpg, 10.jpg,0.446302549,0.484630844,0.446302549, right,2,3,2, 11.jpg, 10.jpg,0.4785995,2,0.234286576,0.484630844,0.446302549,0.406276663,1
2, test,1, vibration during outcome,13,4,2, 12.jpg, 10.jpg,0.408056555,0.493007884,0.493007884, left,1,2,4, 10.jpg, 12.jpg,0.9231589,2,0.209829698,0.493007884,0.441292304,0.408056555,0
2, test,1, vibration during outcome,14,3,1, 11.jpg, 9.jpg,0.424090899,0.194746258,0.424090899, right,2,3,1, 11.jpg, 9.jpg,0.7641832,2,0.194746258,0.496165246,0.424090899,0.411853134,0
2, test,1, vibration during outcome,15,2,3, 10.jpg, 11.jpg,0.498060855,0.410741903,0.410741903, left,1,3,2, 11.jpg, 10.jpg,0.5146474,2,0.254919143,0.498060855,0.410741903,0.425420016,0
2, test,1, vibration during outcome,16,4,2, 12.jpg, 10.jpg,0.434571537,0.473753497,0.434571537, right,2,4,2, 12.jpg, 10.jpg,0.5400404,2,0.268446939,0.473753497,0.384469806,0.434571537,1
2, test,1, vibration during outcome,17,1,2, 9.jpg, 10.jpg,0.260713561,0.427927548,0.260713561, right,2,1,2, 9.jpg, 10.jpg,1.4222193,2,0.260713561,0.427927548,0.397409959,0.467037886,0
2, test,1, vibration during outcome,18,3,4, 11.jpg, 12.jpg,0.380302803,0.458160423,0.458160423, left,1,4,3, 12.jpg, 11.jpg,0.8198714,2,0.273570125,0.42862063,0.380302803,0.458160423,1
2, test,1, vibration during outcome,19,3,1, 11.jpg, 9.jpg,0.39026973,0.269452755,0.269452755, left,1,1,3, 9.jpg, 11.jpg,1.668589,2,0.269452755,0.435371131,0.39026973,0.413401572,0
2, test,1, vibration during outcome,20,3,4, 11.jpg, 12.jpg,0.408454439,0.410963982,0.408454439, right,2,3,4, 11.jpg, 12.jpg,0.5069277,2,0.268741649,0.425551488,0.408454439,0.410963982,1
2, test,1, vibration during outcome,21,1,3, 9.jpg, 11.jpg,0.289598518,0.404768464,0.404768464, left,1,3,1, 11.jpg, 9.jpg,0.7214205,2,0.289598518,0.44190032,0.404768464,0.423231262,0
2, test,1, vibration during outcome,22,4,1, 12.jpg, 9.jpg,0.389718337,0.299460569,0.299460569, left,1,1,4, 9.jpg, 12.jpg,1.1096889,2,0.299460569,0.419525056,0.422610309,0.389718337,1
2, test,1, vibration during outcome,23,3,2, 11.jpg, 10.jpg,0.408863932,0.397611772,0.397611772, left,1,2,3, 10.jpg, 11.jpg,1.0887557,2,0.275422902,0.397611772,0.408863932,0.39059245,0
2, test,1, vibration during outcome,24,4,1, 12.jpg, 9.jpg,0.398445672,0.266650787,0.398445672, right,2,4,1, 12.jpg, 9.jpg,0.7141427,2,0.266650787,0.379139537,0.405854252,0.398445672,1
2, test,1, vibration during outcome,25,2,3, 10.jpg, 11.jpg,0.383103254,0.425425396,0.425425396, left,1,3,2, 11.jpg, 10.jpg,1.0255289,2,0.254259812,0.383103254,0.425425396,0.3844496,0
2, test,1, vibration during outcome,26,2,3, 10.jpg, 11.jpg,0.426705428,0.44409494,0.426705428, right,2,2,3, 10.jpg, 11.jpg,0.8704967,2,0.251503025,0.426705428,0.44409494,0.389570929,1
2, test,1, vibration during outcome,27,2,1, 10.jpg, 9.jpg,0.434578853,0.260664603,0.434578853, right,2,2,1, 10.jpg, 9.jpg,0.8806313,2,0.260664603,0.434578853,0.476699219,0.351861927,1
2, test,1, vibration during outcome,28,4,1, 12.jpg, 9.jpg,0.358204472,0.254900351,0.358204472, right,2,4,1, 12.jpg, 9.jpg,0.9198828,2,0.254900351,0.456535155,0.471375184,0.358204472,1
2, test,1, vibration during outcome,29,1,3, 9.jpg, 11.jpg,0.270226286,0.45401501,0.45401501, left,1,3,1, 11.jpg, 9.jpg,1.1110288,2,0.270226286,0.431125609,0.45401501,0.360838495,0
2, test,1, vibration during outcome,30,3,4, 11.jpg, 12.jpg,0.441888062,0.36725969,0.441888062, right,2,3,4, 11.jpg, 12.jpg,0.6261161,2,0.231605059,0.434793002,0.441888062,0.36725969,1
2, test,1, vibration during outcome,31,4,2, 12.jpg, 10.jpg,0.401609609,0.473135831,0.401609609, right,2,4,2, 12.jpg, 10.jpg,1.0987048,2,0.233739069,0.473135831,0.456731037,0.401609609,1
2, test,1, vibration during outcome,32,4,3, 12.jpg, 11.jpg,0.393803515,0.406064085,0.406064085, left,1,3,4, 11.jpg, 12.jpg,1.0120264,2,0.24432205,0.452508743,0.406064085,0.393803515,1
2, test,1, vibration during outcome,33,1,4, 9.jpg, 12.jpg,0.193554899,0.402704902,0.193554899, right,2,1,4, 9.jpg, 12.jpg,1.0959828,2,0.193554899,0.458621481,0.401876712,0.402704902,0
2, test,1, vibration during outcome,34,2,3, 10.jpg, 11.jpg,0.43001655,0.409321444,0.409321444, left,1,3,2, 11.jpg, 10.jpg,0.5240794,2,0.204964705,0.43001655,0.409321444,0.416668377,0
2, test,1, vibration during outcome,35,3,4, 11.jpg, 12.jpg,0.424862287,0.419699964,0.419699964, left,1,4,3, 12.jpg, 11.jpg,0.6114928,2,0.22048214,0.429045935,0.424862287,0.419699964,0
2, test,1, vibration during outcome,36,1,3, 9.jpg, 11.jpg,0.211101934,0.423948221,0.211101934, right,2,1,3, 9.jpg, 11.jpg,0.3475527,2,0.211101934,0.447650766,0.423948221,0.428911523,1
2, test,1, vibration during outcome,37,2,1, 10.jpg, 9.jpg,0.456165741,0.219326053,0.219326053, left,1,1,2, 9.jpg, 10.jpg,0.9983392,2,0.219326053,0.456165741,0.43257228,0.39910528,0
2, test,1, vibration during outcome,38,2,1, 10.jpg, 9.jpg,0.433155402,0.221341547,0.221341547, left,1,1,2, 9.jpg, 10.jpg,0.5310631,2,0.221341547,0.433155402,0.4363313,0.390289699,0
2, test,1, vibration during outcome,39,3,2, 11.jpg, 10.jpg,0.408906602,0.447660961,0.447660961, left,1,2,3, 10.jpg, 11.jpg,1.2586072,2,0.214118114,0.447660961,0.408906602,0.411267062,1
2, test,1, vibration during outcome,40,4,1, 12.jpg, 9.jpg,0.401024283,0.217505069,0.217505069, left,1,1,4, 9.jpg, 12.jpg,1.6284733,2,0.217505069,0.447456341,0.40122215,0.401024283,0
2, test,1, vibration during outcome,41,2,4, 10.jpg, 12.jpg,0.458162882,0.370374616,0.458162882, right,2,2,4, 10.jpg, 12.jpg,0.7104926,2,0.249081937,0.458162882,0.382054645,0.370374616,1
2, test,1, vibration during outcome,42,3,4, 11.jpg, 12.jpg,0.383924023,0.368787043,0.383924023, right,2,3,4, 11.jpg, 12.jpg,0.6376465,2,0.255981224,0.480978505,0.383924023,0.368787043,0
2, test,1, vibration during outcome,43,4,3, 12.jpg, 11.jpg,0.38383929,0.401205729,0.401205729, left,1,3,4, 11.jpg, 12.jpg,0.8702094,2,0.288213763,0.511556199,0.401205729,0.38383929,1
2, test,1, vibration during outcome,44,1,4, 9.jpg, 12.jpg,0.294374293,0.362927966,0.362927966, left,1,4,1, 12.jpg, 9.jpg,1.1538362,2,0.294374293,0.530811847,0.350203513,0.362927966,0
2, test,1, vibration during outcome,45,4,3, 12.jpg, 11.jpg,0.367033206,0.336134109,0.367033206, right,2,4,3, 12.jpg, 11.jpg,0.4986265,2,0.308994906,0.512913286,0.336134109,0.367033206,1
2, test,1, vibration during outcome,46,3,4, 11.jpg, 12.jpg,0.325220477,0.368488345,0.325220477, right,2,3,4, 11.jpg, 12.jpg,0.8839891,2,0.289973458,0.533187647,0.325220477,0.368488345,0
2, test,1, vibration during outcome,47,4,2, 12.jpg, 10.jpg,0.34679011,0.537872242,0.34679011, right,2,4,2, 12.jpg, 10.jpg,0.6163454,2,0.29306391,0.537872242,0.357892701,0.34679011,0
2, test,1, vibration during outcome,48,4,1, 12.jpg, 9.jpg,0.356952705,0.292135198,0.356952705, right,2,4,1, 12.jpg, 9.jpg,0.4764129,2,0.292135198,0.523160461,0.408168742,0.356952705,1
2, test,1, vibration during outcome,49,3,4, 11.jpg, 12.jpg,0.394241012,0.356189797,0.394241012, right,2,3,4, 11.jpg, 12.jpg,1.3840593,2,0.293886334,0.527646571,0.394241012,0.356189797,1
2, test,1, vibration during outcome,50,3,2, 11.jpg, 10.jpg,0.386662209,0.548355336,0.386662209, right,2,3,2, 11.jpg, 10.jpg,0.7117096,2,0.304272396,0.548355336,0.386662209,0.348042517,0
2, practice,2, vibration off,1,1,4, 5.jpg, 8.jpg,0.167787674,0.302670058,0.302670058, left,1,4,1, 8.jpg, 5.jpg,1.0334001,2,0.167787674,0.332201416,0.584847675,0.302670058,0
2, practice,2, vibration off,2,3,1, 7.jpg, 5.jpg,0.582595424,0.176264347,0.582595424, right,2,3,1, 7.jpg, 5.jpg,0.9063507,2,0.176264347,0.355471562,0.582595424,0.290755999,1
2, practice,2, vibration off,3,1,4, 5.jpg, 8.jpg,0.206677553,0.275426328,0.206677553, right,2,1,4, 5.jpg, 8.jpg,1.2466604,2,0.206677553,0.3490424,0.578794293,0.275426328,0
2, practice,2, vibration off,4,2,4, 6.jpg, 8.jpg,0.358181966,0.268568422,0.268568422, left,1,4,2, 8.jpg, 6.jpg,0.5046942,2,0.216551625,0.358181966,0.569745321,0.268568422,1
2, practice,2, vibration off,5,1,4, 5.jpg, 8.jpg,0.21991786,0.302042001,0.21991786, right,2,1,4, 5.jpg, 8.jpg,0.9935285,2,0.21991786,0.364707579,0.582527891,0.302042001,0
2, test,2, vibration off,1,1,4, 5.jpg, 8.jpg,0.167787674,0.302670058,0.302670058, left,1,4,1, 8.jpg, 5.jpg,0.5916653,2,0.167787674,0.332201416,0.584847675,0.302670058,0
2, test,2, vibration off,2,2,4, 6.jpg, 8.jpg,0.355471562,0.290755999,0.290755999, left,1,4,2, 8.jpg, 6.jpg,0.9001345,2,0.176264347,0.355471562,0.582595424,0.290755999,0
2, test,2, vibration off,3,2,1, 6.jpg, 5.jpg,0.3490424,0.206677553,0.3490424, right,2,2,1, 6.jpg, 5.jpg,0.8059561,2,0.206677553,0.3490424,0.578794293,0.275426328,0
2, test,2, vibration off,4,1,4, 5.jpg, 8.jpg,0.216551625,0.268568422,0.268568422, left,1,4,1, 8.jpg, 5.jpg,0.6197722,2,0.216551625,0.358181966,0.569745321,0.268568422,1
2, test,2, vibration off,5,3,4, 7.jpg, 8.jpg,0.582527891,0.302042001,0.582527891, right,2,3,4, 7.jpg, 8.jpg,0.8226217,2,0.21991786,0.364707579,0.582527891,0.302042001,0
2, test,2, vibration off,6,1,2, 5.jpg, 6.jpg,0.209090036,0.3895513,0.209090036, right,2,1,2, 5.jpg, 6.jpg,1.3823056,2,0.209090036,0.3895513,0.587455063,0.336540119,1
2, test,2, vibration off,7,2,4, 6.jpg, 8.jpg,0.39060737,0.363378709,0.363378709, left,1,4,2, 8.jpg, 6.jpg,0.9953596,2,0.215508938,0.39060737,0.582464681,0.363378709,1
2, test,2, vibration off,8,1,4, 5.jpg, 8.jpg,0.219868403,0.369794555,0.219868403, right,2,1,4, 5.jpg, 8.jpg,1.1475375,2,0.219868403,0.430440014,0.545053358,0.369794555,1
2, test,2, vibration off,9,2,1, 6.jpg, 5.jpg,0.4539861,0.223820368,0.223820368, left,1,1,2, 5.jpg, 6.jpg,1.1265346,2,0.223820368,0.4539861,0.530883085,0.365747455,0
2, test,2, vibration off,10,4,3, 8.jpg, 7.jpg,0.36426522,0.507816291,0.507816291, left,1,3,4, 7.jpg, 8.jpg,1.3450349,2,0.25320591,0.485995524,0.507816291,0.36426522,1
2, test,2, vibration off,11,4,2, 8.jpg, 6.jpg,0.378430477,0.489357893,0.378430477, right,2,4,2, 8.jpg, 6.jpg,0.9082755,2,0.272116099,0.489357893,0.494989907,0.378430477,0
2, test,2, vibration off,12,3,4, 7.jpg, 8.jpg,0.446302549,0.406276663,0.406276663, left,1,4,3, 8.jpg, 7.jpg,0.578741,2,0.234286576,0.484630844,0.446302549,0.406276663,0
2, test,2, vibration off,13,3,2, 7.jpg, 6.jpg,0.441292304,0.493007884,0.441292304, right,2,3,2, 7.jpg, 6.jpg,0.4744306,2,0.209829698,0.493007884,0.441292304,0.408056555,1
2, test,2, vibration off,14,4,3, 8.jpg, 7.jpg,0.411853134,0.424090899,0.424090899, left,1,3,4, 7.jpg, 8.jpg,0.7399816,2,0.194746258,0.496165246,0.424090899,0.411853134,0
2, test,2, vibration off,15,3,2, 7.jpg, 6.jpg,0.410741903,0.498060855,0.498060855, left,1,2,3, 6.jpg, 7.jpg,1.2525181,2,0.254919143,0.498060855,0.410741903,0.425420016,1
2, test,2, vibration off,16,4,1, 8.jpg, 5.jpg,0.434571537,0.268446939,0.268446939, left,1,1,4, 5.jpg, 8.jpg,1.9688579,2,0.268446939,0.473753497,0.384469806,0.434571537,0
2, test,2, vibration off,17,4,3, 8.jpg, 7.jpg,0.467037886,0.397409959,0.467037886, right,2,4,3, 8.jpg, 7.jpg,0.5740265,2,0.260713561,0.427927548,0.397409959,0.467037886,0
2, test,2, vibration off,18,4,3, 8.jpg, 7.jpg,0.458160423,0.380302803,0.380302803, left,1,3,4, 7.jpg, 8.jpg,0.8589786,2,0.273570125,0.42862063,0.380302803,0.458160423,0
2, test,2, vibration off,19,2,1, 6.jpg, 5.jpg,0.435371131,0.269452755,0.269452755, left,1,1,2, 5.jpg, 6.jpg,1.2591504,2,0.269452755,0.435371131,0.39026973,0.413401572,0
2, test,2, vibration off,20,1,4, 5.jpg, 8.jpg,0.268741649,0.410963982,0.268741649, right,2,1,4, 5.jpg, 8.jpg,1.7031832,2,0.268741649,0.425551488,0.408454439,0.410963982,0
2, test,2, vibration off,21,2,3, 6.jpg, 7.jpg,0.44190032,0.404768464,0.404768464, left,1,3,2, 7.jpg, 6.jpg,0.6326904,2,0.289598518,0.44190032,0.404768464,0.423231262,1
2, test,2, vibration off,22,3,4, 7.jpg, 8.jpg,0.422610309,0.389718337,0.422610309, right,2,3,4, 7.jpg, 8.jpg,0.90029,2,0.299460569,0.419525056,0.422610309,0.389718337,0
2, test,2, vibration off,23,2,3, 6.jpg, 7.jpg,0.397611772,0.408863932,0.397611772, right,2,2,3, 6.jpg, 7.jpg,1.3619616,2,0.275422902,0.397611772,0.408863932,0.39059245,1
2, test,2, vibration off,24,3,4, 7.jpg, 8.jpg,0.405854252,0.398445672,0.405854252, right,2,3,4, 7.jpg, 8.jpg,1.7070728,2,0.266650787,0.379139537,0.405854252,0.398445672,0
2, test,2, vibration off,25,2,1, 6.jpg, 5.jpg,0.383103254,0.254259812,0.254259812, left,1,1,2, 5.jpg, 6.jpg,0.5926536,2,0.254259812,0.383103254,0.425425396,0.3844496,0
2, test,2, vibration off,26,2,3, 6.jpg, 7.jpg,0.426705428,0.44409494,0.44409494, left,1,3,2, 7.jpg, 6.jpg,0.9520029,2,0.251503025,0.426705428,0.44409494,0.389570929,0
2, test,2, vibration off,27,1,4, 5.jpg, 8.jpg,0.260664603,0.351861927,0.260664603, right,2,1,4, 5.jpg, 8.jpg,1.0296664,2,0.260664603,0.434578853,0.476699219,0.351861927,1
2, test,2, vibration off,28,4,2, 8.jpg, 6.jpg,0.358204472,0.456535155,0.358204472, right,2,4,2, 8.jpg, 6.jpg,0.8508883,2,0.254900351,0.456535155,0.471375184,0.358204472,0
2, test,2, vibration off,29,4,2, 8.jpg, 6.jpg,0.360838495,0.431125609,0.360838495, right,2,4,2, 8.jpg, 6.jpg,0.9906689,2,0.270226286,0.431125609,0.45401501,0.360838495,1
2, test,2, vibration off,30,1,2, 5.jpg, 6.jpg,0.231605059,0.434793002,0.434793002, left,1,2,1, 6.jpg, 5.jpg,0.8870606,2,0.231605059,0.434793002,0.441888062,0.36725969,0
2, test,2, vibration off,31,2,3, 6.jpg, 7.jpg,0.473135831,0.456731037,0.456731037, left,1,3,2, 7.jpg, 6.jpg,0.8583234,2,0.233739069,0.473135831,0.456731037,0.401609609,0
2, test,2, vibration off,32,4,2, 8.jpg, 6.jpg,0.393803515,0.452508743,0.393803515, right,2,4,2, 8.jpg, 6.jpg,1.1035869,2,0.24432205,0.452508743,0.406064085,0.393803515,1
2, test,2, vibration off,33,1,2, 5.jpg, 6.jpg,0.193554899,0.458621481,0.193554899, right,2,1,2, 5.jpg, 6.jpg,1.1125758,2,0.193554899,0.458621481,0.401876712,0.402704902,0
2, test,2, vibration off,34,1,2, 5.jpg, 6.jpg,0.204964705,0.43001655,0.43001655, left,1,2,1, 6.jpg, 5.jpg,0.5313022,2,0.204964705,0.43001655,0.409321444,0.416668377,1
2, test,2, vibration off,35,4,3, 8.jpg, 7.jpg,0.419699964,0.424862287,0.424862287, left,1,3,4, 7.jpg, 8.jpg,0.9070314,2,0.22048214,0.429045935,0.424862287,0.419699964,0
2, test,2, vibration off,36,4,2, 8.jpg, 6.jpg,0.428911523,0.447650766,0.447650766, left,1,2,4, 6.jpg, 8.jpg,1.4123477,2,0.211101934,0.447650766,0.423948221,0.428911523,0
2, test,2, vibration off,37,3,2, 7.jpg, 6.jpg,0.43257228,0.456165741,0.43257228, right,2,3,2, 7.jpg, 6.jpg,0.7330852,2,0.219326053,0.456165741,0.43257228,0.39910528,0
2, test,2, vibration off,38,4,1, 8.jpg, 5.jpg,0.390289699,0.221341547,0.221341547, left,1,1,4, 5.jpg, 8.jpg,0.687477,2,0.221341547,0.433155402,0.4363313,0.390289699,0
2, test,2, vibration off,39,1,4, 5.jpg, 8.jpg,0.214118114,0.411267062,0.411267062, left,1,4,1, 8.jpg, 5.jpg,1.0665098,2,0.214118114,0.447660961,0.408906602,0.411267062,1
2, test,2, vibration off,40,1,2, 5.jpg, 6.jpg,0.217505069,0.447456341,0.217505069, right,2,1,2, 5.jpg, 6.jpg,0.7242791,2,0.217505069,0.447456341,0.40122215,0.401024283,0
2, test,2, vibration off,41,2,3, 6.jpg, 7.jpg,0.458162882,0.382054645,0.458162882, right,2,2,3, 6.jpg, 7.jpg,1.3818833,2,0.249081937,0.458162882,0.382054645,0.370374616,0
2, test,2, vibration off,42,1,2, 5.jpg, 6.jpg,0.255981224,0.480978505,0.480978505, left,1,2,1, 6.jpg, 5.jpg,1.1323596,2,0.255981224,0.480978505,0.383924023,0.368787043,0
2, test,2, vibration off,43,2,1, 6.jpg, 5.jpg,0.511556199,0.288213763,0.288213763, left,1,1,2, 5.jpg, 6.jpg,1.8409883,2,0.288213763,0.511556199,0.401205729,0.38383929,0
2, test,2, vibration off,44,2,3, 6.jpg, 7.jpg,0.530811847,0.350203513,0.530811847, right,2,2,3, 6.jpg, 7.jpg,0.7363848,2,0.294374293,0.530811847,0.350203513,0.362927966,1
2, test,2, vibration off,45,4,3, 8.jpg, 7.jpg,0.367033206,0.336134109,0.336134109, left,1,3,4, 7.jpg, 8.jpg,0.9348297,2,0.308994906,0.512913286,0.336134109,0.367033206,1
2, test,2, vibration off,46,4,3, 8.jpg, 7.jpg,0.368488345,0.325220477,0.368488345, right,2,4,3, 8.jpg, 7.jpg,0.9298711,2,0.289973458,0.533187647,0.325220477,0.368488345,0
2, test,2, vibration off,47,4,3, 8.jpg, 7.jpg,0.34679011,0.357892701,0.357892701, left,1,3,4, 7.jpg, 8.jpg,0.5083054,2,0.29306391,0.537872242,0.357892701,0.34679011,0
2, test,2, vibration off,48,4,3, 8.jpg, 7.jpg,0.356952705,0.408168742,0.356952705, right,2,4,3, 8.jpg, 7.jpg,0.6163501,2,0.292135198,0.523160461,0.408168742,0.356952705,0
2, test,2, vibration off,49,3,4, 7.jpg, 8.jpg,0.394241012,0.356189797,0.394241012, right,2,3,4, 7.jpg, 8.jpg,1.2025728,2,0.293886334,0.527646571,0.394241012,0.356189797,1
2, test,2, vibration off,50,3,2, 7.jpg, 6.jpg,0.386662209,0.548355336,0.548355336, left,1,2,3, 6.jpg, 7.jpg,1.3139544,2,0.304272396,0.548355336,0.386662209,0.348042517,1
2, practice,3, vibration during choice,1,4,3, 4.jpg, 3.jpg,0.302670058,0.584847675,0.584847675, left,1,3,4, 3.jpg, 4.jpg,0.728963,2,0.167787674,0.332201416,0.584847675,0.302670058,1
2, practice,3, vibration during choice,2,1,3, 1.jpg, 3.jpg,0.176264347,0.582595424,0.176264347, right,2,1,3, 1.jpg, 3.jpg,0.8462092,2,0.176264347,0.355471562,0.582595424,0.290755999,0
2, practice,3, vibration during choice,3,2,3, 2.jpg, 3.jpg,0.3490424,0.578794293,0.578794293, left,1,3,2, 3.jpg, 2.jpg,0.4675166,2,0.206677553,0.3490424,0.578794293,0.275426328,0
2, practice,3, vibration during choice,4,3,4, 3.jpg, 4.jpg,0.569745321,0.268568422,0.268568422, left,1,4,3, 4.jpg, 3.jpg,1.0600272,2,0.216551625,0.358181966,0.569745321,0.268568422,0
2, practice,3, vibration during choice,5,3,2, 3.jpg, 2.jpg,0.582527891,0.364707579,0.582527891, right,2,3,2, 3.jpg, 2.jpg,0.4327939,2,0.21991786,0.364707579,0.582527891,0.302042001,1
2, test,3, vibration during choice,1,1,2, 1.jpg, 2.jpg,0.167787674,0.332201416,0.167787674, right,2,1,2, 1.jpg, 2.jpg,1.3753405,2,0.167787674,0.332201416,0.584847675,0.302670058,0
2, test,3, vibration during choice,2,4,2, 4.jpg, 2.jpg,0.290755999,0.355471562,0.290755999, right,2,4,2, 4.jpg, 2.jpg,1.7856621,2,0.176264347,0.355471562,0.582595424,0.290755999,1
2, test,3, vibration during choice,3,2,3, 2.jpg, 3.jpg,0.3490424,0.578794293,0.3490424, right,2,2,3, 2.jpg, 3.jpg,2.0264877,2,0.206677553,0.3490424,0.578794293,0.275426328,0
2, test,3, vibration during choice,4,1,4, 1.jpg, 4.jpg,0.216551625,0.268568422,0.216551625, right,2,1,4, 1.jpg, 4.jpg,1.7998321,2,0.216551625,0.358181966,0.569745321,0.268568422,0
2, test,3, vibration during choice,5,4,1, 4.jpg, 1.jpg,0.302042001,0.21991786,0.21991786, left,1,1,4, 1.jpg, 4.jpg,0.5305828,2,0.21991786,0.364707579,0.582527891,0.302042001,0
2, test,3, vibration during choice,6,3,2, 3.jpg, 2.jpg,0.587455063,0.3895513,0.3895513, left,1,2,3, 2.jpg, 3.jpg,1.6240188,2,0.209090036,0.3895513,0.587455063,0.336540119,0
2, test,3, vibration during choice,7,4,2, 4.jpg, 2.jpg,0.363378709,0.39060737,0.363378709, right,2,4,2, 4.jpg, 2.jpg,0.7079437,2,0.215508938,0.39060737,0.582464681,0.363378709,0
2, test,3, vibration during choice,8,2,4, 2.jpg, 4.jpg,0.430440014,0.369794555,0.369794555, left,1,4,2, 4.jpg, 2.jpg,0.5858891,2,0.219868403,0.430440014,0.545053358,0.369794555,0
2, test,3, vibration during choice,9,2,1, 2.jpg, 1.jpg,0.4539861,0.223820368,0.223820368, left,1,1,2, 1.jpg, 2.jpg,1.1724406,2,0.223820368,0.4539861,0.530883085,0.365747455,1
2, test,3, vibration during choice,10,3,2, 3.jpg, 2.jpg,0.507816291,0.485995524,0.507816291, right,2,3,2, 3.jpg, 2.jpg,1.563577,2,0.25320591,0.485995524,0.507816291,0.36426522,0
2, test,3, vibration during choice,11,1,3, 1.jpg, 3.jpg,0.272116099,0.494989907,0.494989907, left,1,3,1, 3.jpg, 1.jpg,1.6780581,2,0.272116099,0.489357893,0.494989907,0.378430477,1
2, test,3, vibration during choice,12,3,2, 3.jpg, 2.jpg,0.446302549,0.484630844,0.484630844, left,1,2,3, 2.jpg, 3.jpg,1.1166615,2,0.234286576,0.484630844,0.446302549,0.406276663,0
2, test,3, vibration during choice,13,2,3, 2.jpg, 3.jpg,0.493007884,0.441292304,0.441292304, left,1,3,2, 3.jpg, 2.jpg,1.3125617,2,0.209829698,0.493007884,0.441292304,0.408056555,1
2, test,3, vibration during choice,14,4,2, 4.jpg, 2.jpg,0.411853134,0.496165246,0.496165246, left,1,2,4, 2.jpg, 4.jpg,1.7458362,2,0.194746258,0.496165246,0.424090899,0.411853134,1
2, test,3, vibration during choice,15,4,1, 4.jpg, 1.jpg,0.425420016,0.254919143,0.425420016, right,2,4,1, 4.jpg, 1.jpg,1.158287,2,0.254919143,0.498060855,0.410741903,0.425420016,0
2, test,3, vibration during choice,16,2,4, 2.jpg, 4.jpg,0.473753497,0.434571537,0.434571537, left,1,4,2, 4.jpg, 2.jpg,0.538421,2,0.268446939,0.473753497,0.384469806,0.434571537,1
2, test,3, vibration during choice,17,1,4, 1.jpg, 4.jpg,0.260713561,0.467037886,0.467037886, left,1,4,1, 4.jpg, 1.jpg,0.6721831,2,0.260713561,0.427927548,0.397409959,0.467037886,0
2, test,3, vibration during choice,18,4,3, 4.jpg, 3.jpg,0.458160423,0.380302803,0.458160423, right,2,4,3, 4.jpg, 3.jpg,2.0346985,2,0.273570125,0.42862063,0.380302803,0.458160423,1
2, test,3, vibration during choice,19,2,4, 2.jpg, 4.jpg,0.435371131,0.413401572,0.435371131, right,2,2,4, 2.jpg, 4.jpg,0.6351295,2,0.269452755,0.435371131,0.39026973,0.413401572,0
2, test,3, vibration during choice,20,1,4, 1.jpg, 4.jpg,0.268741649,0.410963982,0.268741649, right,2,1,4, 1.jpg, 4.jpg,1.1127861,2,0.268741649,0.425551488,0.408454439,0.410963982,0
2, test,3, vibration during choice,21,1,2, 1.jpg, 2.jpg,0.289598518,0.44190032,0.44190032, left,1,2,1, 2.jpg, 1.jpg,1.1207931,2,0.289598518,0.44190032,0.404768464,0.423231262,0
2, test,3, vibration during choice,22,3,1, 3.jpg, 1.jpg,0.422610309,0.299460569,0.422610309, right,2,3,1, 3.jpg, 1.jpg,1.6216617,2,0.299460569,0.419525056,0.422610309,0.389718337,0
2, test,3, vibration during choice,23,3,1, 3.jpg, 1.jpg,0.408863932,0.275422902,0.275422902, left,1,1,3, 1.jpg, 3.jpg,1.0470065,2,0.275422902,0.397611772,0.408863932,0.39059245,1
2, test,3, vibration during choice,24,3,1, 3.jpg, 1.jpg,0.405854252,0.266650787,0.405854252, right,2,3,1, 3.jpg, 1.jpg,0.9683893,2,0.266650787,0.379139537,0.405854252,0.398445672,0
2, test,3, vibration during choice,25,3,1, 3.jpg, 1.jpg,0.425425396,0.254259812,0.425425396, right,2,3,1, 3.jpg, 1.jpg,2.6167235,2,0.254259812,0.383103254,0.425425396,0.3844496,1
2, test,3, vibration during choice,26,2,1, 2.jpg, 1.jpg,0.426705428,0.251503025,0.426705428, right,2,2,1, 2.jpg, 1.jpg,1.457907,2,0.251503025,0.426705428,0.44409494,0.389570929,1
2, test,3, vibration during choice,27,4,3, 4.jpg, 3.jpg,0.351861927,0.476699219,0.351861927, right,2,4,3, 4.jpg, 3.jpg,1.429866,2,0.260664603,0.434578853,0.476699219,0.351861927,0
2, test,3, vibration during choice,28,3,4, 3.jpg, 4.jpg,0.471375184,0.358204472,0.471375184, right,2,3,4, 3.jpg, 4.jpg,1.5753194,2,0.254900351,0.456535155,0.471375184,0.358204472,1
2, test,3, vibration during choice,29,4,2, 4.jpg, 2.jpg,0.360838495,0.431125609,0.360838495, right,2,4,2, 4.jpg, 2.jpg,1.8702401,2,0.270226286,0.431125609,0.45401501,0.360838495,0
2, test,3, vibration during choice,30,2,4, 2.jpg, 4.jpg,0.434793002,0.36725969,0.434793002, right,2,2,4, 2.jpg, 4.jpg,1.73102,2,0.231605059,0.434793002,0.441888062,0.36725969,1
2, test,3, vibration during choice,31,4,2, 4.jpg, 2.jpg,0.401609609,0.473135831,0.473135831, left,1,2,4, 2.jpg, 4.jpg,0.7386046,2,0.233739069,0.473135831,0.456731037,0.401609609,1
2, test,3, vibration during choice,32,2,1, 2.jpg, 1.jpg,0.452508743,0.24432205,0.24432205, left,1,1,2, 1.jpg, 2.jpg,1.3641009,2,0.24432205,0.452508743,0.406064085,0.393803515,0
2, test,3, vibration during choice,33,2,3, 2.jpg, 3.jpg,0.458621481,0.401876712,0.401876712, left,1,3,2, 3.jpg, 2.jpg,1.5793184,2,0.193554899,0.458621481,0.401876712,0.402704902,1
2, test,3, vibration during choice,34,2,4, 2.jpg, 4.jpg,0.43001655,0.416668377,0.43001655, right,2,2,4, 2.jpg, 4.jpg,3.0241441,2,0.204964705,0.43001655,0.409321444,0.416668377,1
2, test,3, vibration during choice,35,3,4, 3.jpg, 4.jpg,0.424862287,0.419699964,0.419699964, left,1,4,3, 4.jpg, 3.jpg,1.0381704,2,0.22048214,0.429045935,0.424862287,0.419699964,0
2, test,3, vibration during choice,36,2,3, 2.jpg, 3.jpg,0.447650766,0.423948221,0.423948221, left,1,3,2, 3.jpg, 2.jpg,1.2060597,2,0.211101934,0.447650766,0.423948221,0.428911523,0
2, test,3, vibration during choice,37,4,2, 4.jpg, 2.jpg,0.39910528,0.456165741,0.39910528, right,2,4,2, 4.jpg, 2.jpg,1.2255268,2,0.219326053,0.456165741,0.43257228,0.39910528,0
2, test,3, vibration during choice,38,4,3, 4.jpg, 3.jpg,0.390289699,0.4363313,0.390289699, right,2,4,3, 4.jpg, 3.jpg,0.885421,2,0.221341547,0.433155402,0.4363313,0.390289699,0
2, test,3, vibration during choice,39,2,1, 2.jpg, 1.jpg,0.447660961,0.214118114,0.214118114, left,1,1,2, 1.jpg, 2.jpg,0.5672706,2,0.214118114,0.447660961,0.408906602,0.411267062,0
2, test,3, vibration during choice,40,4,3, 4.jpg, 3.jpg,0.401024283,0.40122215,0.40122215, left,1,3,4, 3.jpg, 4.jpg,0.9714892,2,0.217505069,0.447456341,0.40122215,0.401024283,1
2, test,3, vibration during choice,41,4,3, 4.jpg, 3.jpg,0.370374616,0.382054645,0.382054645, left,1,3,4, 3.jpg, 4.jpg,2.0103909,2,0.249081937,0.458162882,0.382054645,0.370374616,1
2, test,3, vibration during choice,42,4,3, 4.jpg, 3.jpg,0.368787043,0.383924023,0.368787043, right,2,4,3, 4.jpg, 3.jpg,0.9588704,2,0.255981224,0.480978505,0.383924023,0.368787043,0
2, test,3, vibration during choice,43,1,2, 1.jpg, 2.jpg,0.288213763,0.511556199,0.511556199, left,1,2,1, 2.jpg, 1.jpg,1.2798033,2,0.288213763,0.511556199,0.401205729,0.38383929,1
2, test,3, vibration during choice,44,2,3, 2.jpg, 3.jpg,0.530811847,0.350203513,0.530811847, right,2,2,3, 2.jpg, 3.jpg,1.7758928,2,0.294374293,0.530811847,0.350203513,0.362927966,1
2, test,3, vibration during choice,45,2,3, 2.jpg, 3.jpg,0.512913286,0.336134109,0.336134109, left,1,3,2, 3.jpg, 2.jpg,0.7255954,2,0.308994906,0.512913286,0.336134109,0.367033206,0
2, test,3, vibration during choice,46,2,1, 2.jpg, 1.jpg,0.533187647,0.289973458,0.289973458, left,1,1,2, 1.jpg, 2.jpg,1.4143119,2,0.289973458,0.533187647,0.325220477,0.368488345,0
2, test,3, vibration during choice,47,2,4, 2.jpg, 4.jpg,0.537872242,0.34679011,0.34679011, left,1,4,2, 4.jpg, 2.jpg,1.0161729,2,0.29306391,0.537872242,0.357892701,0.34679011,0
2, test,3, vibration during choice,48,4,1, 4.jpg, 1.jpg,0.356952705,0.292135198,0.356952705, right,2,4,1, 4.jpg, 1.jpg,1.2697386,2,0.292135198,0.523160461,0.408168742,0.356952705,1
2, test,3, vibration during choice,49,4,1, 4.jpg, 1.jpg,0.356189797,0.293886334,0.356189797, right,2,4,1, 4.jpg, 1.jpg,1.663619,2,0.293886334,0.527646571,0.394241012,0.356189797,0
2, test,3, vibration during choice,50,1,3, 1.jpg, 3.jpg,0.304272396,0.386662209,0.386662209, left,1,3,1, 3.jpg, 1.jpg,0.6761207,2,0.304272396,0.548355336,0.386662209,0.348042517,1
3, practice,1, vibration during outcome,1,3,1, 7.jpg, 5.jpg,0.584847675,0.167787674,0.584847675, right,2,3,1, 7.jpg, 5.jpg,2.0742783,2,0.167787674,0.332201416,0.584847675,0.302670058,1
3, practice,1, vibration during outcome,2,2,3, 6.jpg, 7.jpg,0.355471562,0.582595424,0.582595424, left,1,3,2, 7.jpg, 6.jpg,2.2913025,2,0.176264347,0.355471562,0.582595424,0.290755999,1
3, practice,1, vibration during outcome,3,1,3, 5.jpg, 7.jpg,0.206677553,0.578794293,0.578794293, left,1,3,1, 7.jpg, 5.jpg,1.6967647,2,0.206677553,0.3490424,0.578794293,0.275426328,1
3, practice,1, vibration during outcome,4,2,3, 6.jpg, 7.jpg,0.358181966,0.569745321,0.569745321, left,1,3,2, 7.jpg, 6.jpg,0.6427309,2,0.216551625,0.358181966,0.569745321,0.268568422,1
3, practice,1, vibration during outcome,5,3,2, 7.jpg, 6.jpg,0.582527891,0.364707579,0.582527891, right,2,3,2, 7.jpg, 6.jpg,0.5813701,2,0.21991786,0.364707579,0.582527891,0.302042001,1
3, test,1, vibration during outcome,1,2,1, 6.jpg, 5.jpg,0.332201416,0.167787674,0.332201416, right,2,2,1, 6.jpg, 5.jpg,1.4042364,2,0.167787674,0.332201416,0.584847675,0.302670058,1
3, test,1, vibration during outcome,2,1,3, 5.jpg, 7.jpg,0.176264347,0.582595424,0.582595424, left,1,3,1, 7.jpg, 5.jpg,1.661343,2,0.176264347,0.355471562,0.582595424,0.290755999,1
3, test,1, vibration during outcome,3,1,3, 5.jpg, 7.jpg,0.206677553,0.578794293,0.578794293, left,1,3,1, 7.jpg, 5.jpg,0.7126639,2,0.206677553,0.3490424,0.578794293,0.275426328,0
3, test,1, vibration during outcome,4,3,4, 7.jpg, 8.jpg,0.569745321,0.268568422,0.569745321, right,2,3,4, 7.jpg, 8.jpg,0.6564426,2,0.216551625,0.358181966,0.569745321,0.268568422,0
3, test,1, vibration during outcome,5,4,3, 8.jpg, 7.jpg,0.302042001,0.582527891,0.582527891, left,1,3,4, 7.jpg, 8.jpg,0.7752576,2,0.21991786,0.364707579,0.582527891,0.302042001,0
3, test,1, vibration during outcome,6,2,1, 6.jpg, 5.jpg,0.3895513,0.209090036,0.3895513, right,2,2,1, 6.jpg, 5.jpg,1.0853219,2,0.209090036,0.3895513,0.587455063,0.336540119,0
3, test,1, vibration during outcome,7,3,2, 7.jpg, 6.jpg,0.582464681,0.39060737,0.582464681, right,2,3,2, 7.jpg, 6.jpg,0.6473581,2,0.215508938,0.39060737,0.582464681,0.363378709,1
3, test,1, vibration during outcome,8,4,1, 8.jpg, 5.jpg,0.369794555,0.219868403,0.219868403, left,1,1,4, 5.jpg, 8.jpg,1.5122347,2,0.219868403,0.430440014,0.545053358,0.369794555,0
3, test,1, vibration during outcome,9,3,2, 7.jpg, 6.jpg,0.530883085,0.4539861,0.530883085, right,2,3,2, 7.jpg, 6.jpg,0.6491306,2,0.223820368,0.4539861,0.530883085,0.365747455,1
3, test,1, vibration during outcome,10,4,1, 8.jpg, 5.jpg,0.36426522,0.25320591,0.25320591, left,1,1,4, 5.jpg, 8.jpg,2.0230099,2,0.25320591,0.485995524,0.507816291,0.36426522,0
3, test,1, vibration during outcome,11,4,3, 8.jpg, 7.jpg,0.378430477,0.494989907,0.378430477, right,2,4,3, 8.jpg, 7.jpg,0.9808493,2,0.272116099,0.489357893,0.494989907,0.378430477,0
3, test,1, vibration during outcome,12,2,3, 6.jpg, 7.jpg,0.484630844,0.446302549,0.446302549, left,1,3,2, 7.jpg, 6.jpg,0.5935524,2,0.234286576,0.484630844,0.446302549,0.406276663,1
3, test,1, vibration during outcome,13,2,3, 6.jpg, 7.jpg,0.493007884,0.441292304,0.441292304, left,1,3,2, 7.jpg, 6.jpg,0.6075192,2,0.209829698,0.493007884,0.441292304,0.408056555,0
3, test,1, vibration during outcome,14,1,2, 5.jpg, 6.jpg,0.194746258,0.496165246,0.496165246, left,1,2,1, 6.jpg, 5.jpg,2.1155744,2,0.194746258,0.496165246,0.424090899,0.411853134,0
3, test,1, vibration during outcome,15,1,2, 5.jpg, 6.jpg,0.254919143,0.498060855,0.254919143, right,2,1,2, 5.jpg, 6.jpg,2.0123927,2,0.254919143,0.498060855,0.410741903,0.425420016,0
3, test,1, vibration during outcome,16,3,4, 7.jpg, 8.jpg,0.384469806,0.434571537,0.384469806, right,2,3,4, 7.jpg, 8.jpg,1.0372079,2,0.268446939,0.473753497,0.384469806,0.434571537,1
3, test,1, vibration during outcome,17,3,4, 7.jpg, 8.jpg,0.397409959,0.467037886,0.397409959, right,2,3,4, 7.jpg, 8.jpg,0.6402584,2,0.260713561,0.427927548,0.397409959,0.467037886,1
3, test,1, vibration during outcome,18,2,4, 6.jpg, 8.jpg,0.42862063,0.458160423,0.458160423, left,1,4,2, 8.jpg, 6.jpg,2.5328253,2,0.273570125,0.42862063,0.380302803,0.458160423,0
3, test,1, vibration during outcome,19,1,4, 5.jpg, 8.jpg,0.269452755,0.413401572,0.413401572, left,1,4,1, 8.jpg, 5.jpg,1.4982693,2,0.269452755,0.435371131,0.39026973,0.413401572,1
3, test,1, vibration during outcome,20,1,3, 5.jpg, 7.jpg,0.268741649,0.408454439,0.408454439, left,1,3,1, 7.jpg, 5.jpg,1.6798882,2,0.268741649,0.425551488,0.408454439,0.410963982,0
3, test,1, vibration during outcome,21,1,2, 5.jpg, 6.jpg,0.289598518,0.44190032,0.44190032, left,1,2,1, 6.jpg, 5.jpg,1.8140589,2,0.289598518,0.44190032,0.404768464,0.423231262,1
3, test,1, vibration during outcome,22,2,3, 6.jpg, 7.jpg,0.419525056,0.422610309,0.422610309, left,1,3,2, 7.jpg, 6.jpg,1.7236129,2,0.299460569,0.419525056,0.422610309,0.389718337,1
3, test,1, vibration during outcome,23,3,4, 7.jpg, 8.jpg,0.408863932,0.39059245,0.408863932, right,2,3,4, 7.jpg, 8.jpg,0.8126554,2,0.275422902,0.397611772,0.408863932,0.39059245,0
3, test,1, vibration during outcome,24,2,4, 6.jpg, 8.jpg,0.379139537,0.398445672,0.379139537, right,2,2,4, 6.jpg, 8.jpg,2.1106717,2,0.266650787,0.379139537,0.405854252,0.398445672,1
3, test,1, vibration during outcome,25,4,1, 8.jpg, 5.jpg,0.3844496,0.254259812,0.254259812, left,1,1,4, 5.jpg, 8.jpg,1.4733747,2,0.254259812,0.383103254,0.425425396,0.3844496,0
3, test,1, vibration during outcome,26,2,1, 6.jpg, 5.jpg,0.426705428,0.251503025,0.426705428, right,2,2,1, 6.jpg, 5.jpg,1.7093211,2,0.251503025,0.426705428,0.44409494,0.389570929,0
3, test,1, vibration during outcome,27,1,2, 5.jpg, 6.jpg,0.260664603,0.434578853,0.260664603, right,2,1,2, 5.jpg, 6.jpg,1.7884971,2,0.260664603,0.434578853,0.476699219,0.351861927,1
3, test,1, vibration during outcome,28,1,2, 5.jpg, 6.jpg,0.254900351,0.456535155,0.254900351, right,2,1,2, 5.jpg, 6.jpg,0.9952587,2,0.254900351,0.456535155,0.471375184,0.358204472,0
3, test,1, vibration during outcome,29,1,4, 5.jpg, 8.jpg,0.270226286,0.360838495,0.270226286, right,2,1,4, 5.jpg, 8.jpg,0.9618667,2,0.270226286,0.431125609,0.45401501,0.360838495,0
3, test,1, vibration during outcome,30,3,1, 7.jpg, 5.jpg,0.441888062,0.231605059,0.441888062, right,2,3,1, 7.jpg, 5.jpg,1.3459305,2,0.231605059,0.434793002,0.441888062,0.36725969,1
3, test,1, vibration during outcome,31,4,2, 8.jpg, 6.jpg,0.401609609,0.473135831,0.473135831, left,1,2,4, 6.jpg, 8.jpg,1.1359048,2,0.233739069,0.473135831,0.456731037,0.401609609,0
3, test,1, vibration during outcome,32,3,2, 7.jpg, 6.jpg,0.406064085,0.452508743,0.406064085, right,2,3,2, 7.jpg, 6.jpg,0.574786,2,0.24432205,0.452508743,0.406064085,0.393803515,0
3, test,1, vibration during outcome,33,3,2, 7.jpg, 6.jpg,0.401876712,0.458621481,0.401876712, right,2,3,2, 7.jpg, 6.jpg,0.7414007,2,0.193554899,0.458621481,0.401876712,0.402704902,0
3, test,1, vibration during outcome,34,3,1, 7.jpg, 5.jpg,0.409321444,0.204964705,0.409321444, right,2,3,1, 7.jpg, 5.jpg,1.1095798,2,0.204964705,0.43001655,0.409321444,0.416668377,0
3, test,1, vibration during outcome,35,3,1, 7.jpg, 5.jpg,0.424862287,0.22048214,0.22048214, left,1,1,3, 5.jpg, 7.jpg,1.4423598,2,0.22048214,0.429045935,0.424862287,0.419699964,0
3, test,1, vibration during outcome,36,3,2, 7.jpg, 6.jpg,0.423948221,0.447650766,0.423948221, right,2,3,2, 7.jpg, 6.jpg,2.4153181,2,0.211101934,0.447650766,0.423948221,0.428911523,1
3, test,1, vibration during outcome,37,1,2, 5.jpg, 6.jpg,0.219326053,0.456165741,0.456165741, left,1,2,1, 6.jpg, 5.jpg,1.8039462,2,0.219326053,0.456165741,0.43257228,0.39910528,1
3, test,1, vibration during outcome,38,3,1, 7.jpg, 5.jpg,0.4363313,0.221341547,0.221341547, left,1,1,3, 5.jpg, 7.jpg,1.5588994,2,0.221341547,0.433155402,0.4363313,0.390289699,0
3, test,1, vibration during outcome,39,1,3, 5.jpg, 7.jpg,0.214118114,0.408906602,0.214118114, right,2,1,3, 5.jpg, 7.jpg,0.8327664,2,0.214118114,0.447660961,0.408906602,0.411267062,0
3, test,1, vibration during outcome,40,1,2, 5.jpg, 6.jpg,0.217505069,0.447456341,0.447456341, left,1,2,1, 6.jpg, 5.jpg,1.5990306,2,0.217505069,0.447456341,0.40122215,0.401024283,0
3, test,1, vibration during outcome,41,3,2, 7.jpg, 6.jpg,0.382054645,0.458162882,0.458162882, left,1,2,3, 6.jpg, 7.jpg,1.7016734,2,0.249081937,0.458162882,0.382054645,0.370374616,1
3, test,1, vibration during outcome,42,2,4, 6.jpg, 8.jpg,0.480978505,0.368787043,0.480978505, right,2,2,4, 6.jpg, 8.jpg,1.2741214,2,0.255981224,0.480978505,0.383924023,0.368787043,0
3, test,1, vibration during outcome,43,4,3, 8.jpg, 7.jpg,0.38383929,0.401205729,0.401205729, left,1,3,4, 7.jpg, 8.jpg,1.2250543,2,0.288213763,0.511556199,0.401205729,0.38383929,1
3, test,1, vibration during outcome,44,2,4, 6.jpg, 8.jpg,0.530811847,0.362927966,0.530811847, right,2,2,4, 6.jpg, 8.jpg,1.8175735,2,0.294374293,0.530811847,0.350203513,0.362927966,1
3, test,1, vibration during outcome,45,4,3, 8.jpg, 7.jpg,0.367033206,0.336134109,0.336134109, left,1,3,4, 7.jpg, 8.jpg,0.7437551,2,0.308994906,0.512913286,0.336134109,0.367033206,0
3, test,1, vibration during outcome,46,1,4, 5.jpg, 8.jpg,0.289973458,0.368488345,0.289973458, right,2,1,4, 5.jpg, 8.jpg,1.6707953,2,0.289973458,0.533187647,0.325220477,0.368488345,0
3, test,1, vibration during outcome,47,1,3, 5.jpg, 7.jpg,0.29306391,0.357892701,0.357892701, left,1,3,1, 7.jpg, 5.jpg,0.8938004,2,0.29306391,0.537872242,0.357892701,0.34679011,0
3, test,1, vibration during outcome,48,2,3, 6.jpg, 7.jpg,0.523160461,0.408168742,0.523160461, right,2,2,3, 6.jpg, 7.jpg,1.0748929,2,0.292135198,0.523160461,0.408168742,0.356952705,1
3, test,1, vibration during outcome,49,2,4, 6.jpg, 8.jpg,0.527646571,0.356189797,0.527646571, right,2,2,4, 6.jpg, 8.jpg,0.8307437,2,0.293886334,0.527646571,0.394241012,0.356189797,1
3, test,1, vibration during outcome,50,4,1, 8.jpg, 5.jpg,0.348042517,0.304272396,0.348042517, right,2,4,1, 8.jpg, 5.jpg,1.7398965,2,0.304272396,0.548355336,0.386662209,0.348042517,1
3, practice,2, vibration during choice,1,4,2, 12.jpg, 10.jpg,0.302670058,0.332201416,0.332201416, left,1,2,4, 10.jpg, 12.jpg,1.3770416,2,0.167787674,0.332201416,0.584847675,0.302670058,0
3, practice,2, vibration during choice,2,4,3, 12.jpg, 11.jpg,0.290755999,0.582595424,0.290755999, right,2,4,3, 12.jpg, 11.jpg,1.0533729,2,0.176264347,0.355471562,0.582595424,0.290755999,0
3, practice,2, vibration during choice,3,1,3, 9.jpg, 11.jpg,0.206677553,0.578794293,0.578794293, left,1,3,1, 11.jpg, 9.jpg,1.0099347,2,0.206677553,0.3490424,0.578794293,0.275426328,1
3, practice,2, vibration during choice,4,1,4, 9.jpg, 12.jpg,0.216551625,0.268568422,0.216551625, right,2,1,4, 9.jpg, 12.jpg,1.8989681,2,0.216551625,0.358181966,0.569745321,0.268568422,0
3, practice,2, vibration during choice,5,1,2, 9.jpg, 10.jpg,0.21991786,0.364707579,0.21991786, right,2,1,2, 9.jpg, 10.jpg,1.0831782,2,0.21991786,0.364707579,0.582527891,0.302042001,0
3, test,2, vibration during choice,1,4,2, 12.jpg, 10.jpg,0.302670058,0.332201416,0.332201416, left,1,2,4, 10.jpg, 12.jpg,1.0237363,2,0.167787674,0.332201416,0.584847675,0.302670058,0
3, test,2, vibration during choice,2,3,2, 11.jpg, 10.jpg,0.582595424,0.355471562,0.582595424, right,2,3,2, 11.jpg, 10.jpg,0.8468495,2,0.176264347,0.355471562,0.582595424,0.290755999,1
3, test,2, vibration during choice,3,3,2, 11.jpg, 10.jpg,0.578794293,0.3490424,0.578794293, right,2,3,2, 11.jpg, 10.jpg,0.812945,2,0.206677553,0.3490424,0.578794293,0.275426328,0
3, test,2, vibration during choice,4,4,2, 12.jpg, 10.jpg,0.268568422,0.358181966,0.268568422, right,2,4,2, 12.jpg, 10.jpg,1.2784046,2,0.216551625,0.358181966,0.569745321,0.268568422,1
3, test,2, vibration during choice,5,2,4, 10.jpg, 12.jpg,0.364707579,0.302042001,0.364707579, right,2,2,4, 10.jpg, 12.jpg,1.2590637,2,0.21991786,0.364707579,0.582527891,0.302042001,1
3, test,2, vibration during choice,6,2,1, 10.jpg, 9.jpg,0.3895513,0.209090036,0.3895513, right,2,2,1, 10.jpg, 9.jpg,1.0809837,2,0.209090036,0.3895513,0.587455063,0.336540119,1
3, test,2, vibration during choice,7,4,2, 12.jpg, 10.jpg,0.363378709,0.39060737,0.39060737, left,1,2,4, 10.jpg, 12.jpg,2.0703701,2,0.215508938,0.39060737,0.582464681,0.363378709,0
3, test,2, vibration during choice,8,4,1, 12.jpg, 9.jpg,0.369794555,0.219868403,0.369794555, right,2,4,1, 12.jpg, 9.jpg,0.9110143,2,0.219868403,0.430440014,0.545053358,0.369794555,1
3, test,2, vibration during choice,9,3,2, 11.jpg, 10.jpg,0.530883085,0.4539861,0.4539861, left,1,2,3, 10.jpg, 11.jpg,0.9300396,2,0.223820368,0.4539861,0.530883085,0.365747455,1
3, test,2, vibration during choice,10,4,2, 12.jpg, 10.jpg,0.36426522,0.485995524,0.485995524, left,1,2,4, 10.jpg, 12.jpg,0.6786349,2,0.25320591,0.485995524,0.507816291,0.36426522,1
3, test,2, vibration during choice,11,1,2, 9.jpg, 10.jpg,0.272116099,0.489357893,0.489357893, left,1,2,1, 10.jpg, 9.jpg,0.5507209,2,0.272116099,0.489357893,0.494989907,0.378430477,1
3, test,2, vibration during choice,12,3,1, 11.jpg, 9.jpg,0.446302549,0.234286576,0.446302549, right,2,3,1, 11.jpg, 9.jpg,1.0089359,2,0.234286576,0.484630844,0.446302549,0.406276663,1
3, test,2, vibration during choice,13,3,4, 11.jpg, 12.jpg,0.441292304,0.408056555,0.441292304, right,2,3,4, 11.jpg, 12.jpg,0.6418097,2,0.209829698,0.493007884,0.441292304,0.408056555,0
3, test,2, vibration during choice,14,4,2, 12.jpg, 10.jpg,0.411853134,0.496165246,0.496165246, left,1,2,4, 10.jpg, 12.jpg,0.5495712,2,0.194746258,0.496165246,0.424090899,0.411853134,1
3, test,2, vibration during choice,15,4,2, 12.jpg, 10.jpg,0.425420016,0.498060855,0.498060855, left,1,2,4, 10.jpg, 12.jpg,0.5344532,2,0.254919143,0.498060855,0.410741903,0.425420016,0
3, test,2, vibration during choice,16,1,2, 9.jpg, 10.jpg,0.268446939,0.473753497,0.473753497, left,1,2,1, 10.jpg, 9.jpg,0.7531373,2,0.268446939,0.473753497,0.384469806,0.434571537,0
3, test,2, vibration during choice,17,2,4, 10.jpg, 12.jpg,0.427927548,0.467037886,0.427927548, right,2,2,4, 10.jpg, 12.jpg,1.1500279,2,0.260713561,0.427927548,0.397409959,0.467037886,0
3, test,2, vibration during choice,18,1,3, 9.jpg, 11.jpg,0.273570125,0.380302803,0.380302803, left,1,3,1, 11.jpg, 9.jpg,1.1389549,2,0.273570125,0.42862063,0.380302803,0.458160423,1
3, test,2, vibration during choice,19,4,1, 12.jpg, 9.jpg,0.413401572,0.269452755,0.269452755, left,1,1,4, 9.jpg, 12.jpg,1.1715049,2,0.269452755,0.435371131,0.39026973,0.413401572,0
3, test,2, vibration during choice,20,2,3, 10.jpg, 11.jpg,0.425551488,0.408454439,0.425551488, right,2,2,3, 10.jpg, 11.jpg,0.9072946,2,0.268741649,0.425551488,0.408454439,0.410963982,0
3, test,2, vibration during choice,21,4,3, 12.jpg, 11.jpg,0.423231262,0.404768464,0.404768464, left,1,3,4, 11.jpg, 12.jpg,0.6110302,2,0.289598518,0.44190032,0.404768464,0.423231262,0
3, test,2, vibration during choice,22,2,1, 10.jpg, 9.jpg,0.419525056,0.299460569,0.419525056, right,2,2,1, 10.jpg, 9.jpg,1.0417996,2,0.299460569,0.419525056,0.422610309,0.389718337,0
3, test,2, vibration during choice,23,4,1, 12.jpg, 9.jpg,0.39059245,0.275422902,0.39059245, right,2,4,1, 12.jpg, 9.jpg,1.5299359,2,0.275422902,0.397611772,0.408863932,0.39059245,0
3, test,2, vibration during choice,24,4,1, 12.jpg, 9.jpg,0.398445672,0.266650787,0.266650787, left,1,1,4, 9.jpg, 12.jpg,0.4884093,2,0.266650787,0.379139537,0.405854252,0.398445672,1
3, test,2, vibration during choice,25,3,4, 11.jpg, 12.jpg,0.425425396,0.3844496,0.3844496, left,1,4,3, 12.jpg, 11.jpg,0.782135,2,0.254259812,0.383103254,0.425425396,0.3844496,0
3, test,2, vibration during choice,26,3,2, 11.jpg, 10.jpg,0.44409494,0.426705428,0.426705428, left,1,2,3, 10.jpg, 11.jpg,0.7988401,2,0.251503025,0.426705428,0.44409494,0.389570929,0
3, test,2, vibration during choice,27,4,3, 12.jpg, 11.jpg,0.351861927,0.476699219,0.351861927, right,2,4,3, 12.jpg, 11.jpg,0.9767927,2,0.260664603,0.434578853,0.476699219,0.351861927,1
3, test,2, vibration during choice,28,3,4, 11.jpg, 12.jpg,0.471375184,0.358204472,0.358204472, left,1,4,3, 12.jpg, 11.jpg,0.7855695,2,0.254900351,0.456535155,0.471375184,0.358204472,1
3, test,2, vibration during choice,29,1,2, 9.jpg, 10.jpg,0.270226286,0.431125609,0.431125609, left,1,2,1, 10.jpg, 9.jpg,0.8928071,2,0.270226286,0.431125609,0.45401501,0.360838495,0
3, test,2, vibration during choice,30,2,4, 10.jpg, 12.jpg,0.434793002,0.36725969,0.36725969, left,1,4,2, 12.jpg, 10.jpg,1.7812987,2,0.231605059,0.434793002,0.441888062,0.36725969,0
3, test,2, vibration during choice,31,1,2, 9.jpg, 10.jpg,0.233739069,0.473135831,0.473135831, left,1,2,1, 10.jpg, 9.jpg,0.8352617,2,0.233739069,0.473135831,0.456731037,0.401609609,0
3, test,2, vibration during choice,32,2,1, 10.jpg, 9.jpg,0.452508743,0.24432205,0.24432205, left,1,1,2, 9.jpg, 10.jpg,1.0567806,2,0.24432205,0.452508743,0.406064085,0.393803515,0
3, test,2, vibration during choice,33,3,4, 11.jpg, 12.jpg,0.401876712,0.402704902,0.401876712, right,2,3,4, 11.jpg, 12.jpg,1.0934177,2,0.193554899,0.458621481,0.401876712,0.402704902,0
3, test,2, vibration during choice,34,2,1, 10.jpg, 9.jpg,0.43001655,0.204964705,0.43001655, right,2,2,1, 10.jpg, 9.jpg,1.1853099,2,0.204964705,0.43001655,0.409321444,0.416668377,0
3, test,2, vibration during choice,35,1,2, 9.jpg, 10.jpg,0.22048214,0.429045935,0.429045935, left,1,2,1, 10.jpg, 9.jpg,0.5410917,2,0.22048214,0.429045935,0.424862287,0.419699964,0
3, test,2, vibration during choice,36,4,2, 12.jpg, 10.jpg,0.428911523,0.447650766,0.428911523, right,2,4,2, 12.jpg, 10.jpg,1.2777572,2,0.211101934,0.447650766,0.423948221,0.428911523,0
3, test,2, vibration during choice,37,4,2, 12.jpg, 10.jpg,0.39910528,0.456165741,0.456165741, left,1,2,4, 10.jpg, 12.jpg,0.6452959,2,0.219326053,0.456165741,0.43257228,0.39910528,0
3, test,2, vibration during choice,38,1,4, 9.jpg, 12.jpg,0.221341547,0.390289699,0.390289699, left,1,4,1, 12.jpg, 9.jpg,1.1780566,2,0.221341547,0.433155402,0.4363313,0.390289699,0
3, test,2, vibration during choice,39,2,3, 10.jpg, 11.jpg,0.447660961,0.408906602,0.408906602, left,1,3,2, 11.jpg, 10.jpg,2.150388,2,0.214118114,0.447660961,0.408906602,0.411267062,1
3, test,2, vibration during choice,40,3,2, 11.jpg, 10.jpg,0.40122215,0.447456341,0.40122215, right,2,3,2, 11.jpg, 10.jpg,0.7134378,2,0.217505069,0.447456341,0.40122215,0.401024283,0
3, test,2, vibration during choice,41,4,1, 12.jpg, 9.jpg,0.370374616,0.249081937,0.370374616, right,2,4,1, 12.jpg, 9.jpg,1.396932,2,0.249081937,0.458162882,0.382054645,0.370374616,0
3, test,2, vibration during choice,42,3,1, 11.jpg, 9.jpg,0.383924023,0.255981224,0.383924023, right,2,3,1, 11.jpg, 9.jpg,0.8637617,2,0.255981224,0.480978505,0.383924023,0.368787043,0
3, test,2, vibration during choice,43,3,1, 11.jpg, 9.jpg,0.401205729,0.288213763,0.288213763, left,1,1,3, 9.jpg, 11.jpg,0.5874078,2,0.288213763,0.511556199,0.401205729,0.38383929,1
3, test,2, vibration during choice,44,4,1, 12.jpg, 9.jpg,0.362927966,0.294374293,0.294374293, left,1,1,4, 9.jpg, 12.jpg,0.5228229,2,0.294374293,0.530811847,0.350203513,0.362927966,0
3, test,2, vibration during choice,45,3,1, 11.jpg, 9.jpg,0.336134109,0.308994906,0.336134109, right,2,3,1, 11.jpg, 9.jpg,0.5880337,2,0.308994906,0.512913286,0.336134109,0.367033206,1
3, test,2, vibration during choice,46,4,1, 12.jpg, 9.jpg,0.368488345,0.289973458,0.368488345, right,2,4,1, 12.jpg, 9.jpg,0.910218,2,0.289973458,0.533187647,0.325220477,0.368488345,0
3, test,2, vibration during choice,47,3,1, 11.jpg, 9.jpg,0.357892701,0.29306391,0.357892701, right,2,3,1, 11.jpg, 9.jpg,0.7539892,2,0.29306391,0.537872242,0.357892701,0.34679011,0
3, test,2, vibration during choice,48,2,4, 10.jpg, 12.jpg,0.523160461,0.356952705,0.356952705, left,1,4,2, 12.jpg, 10.jpg,0.8302272,2,0.292135198,0.523160461,0.408168742,0.356952705,0
3, test,2, vibration during choice,49,4,2, 12.jpg, 10.jpg,0.356189797,0.527646571,0.356189797, right,2,4,2, 12.jpg, 10.jpg,0.7942202,2,0.293886334,0.527646571,0.394241012,0.356189797,0
3, test,2, vibration during choice,50,3,2, 11.jpg, 10.jpg,0.386662209,0.548355336,0.386662209, right,2,3,2, 11.jpg, 10.jpg,1.0191134,2,0.304272396,0.548355336,0.386662209,0.348042517,1
3, practice,3, vibration off,1,4,2, 4.jpg, 2.jpg,0.302670058,0.332201416,0.332201416, left,1,2,4, 2.jpg, 4.jpg,0.8763308,2,0.167787674,0.332201416,0.584847675,0.302670058,0
3, practice,3, vibration off,2,4,3, 4.jpg, 3.jpg,0.290755999,0.582595424,0.290755999, right,2,4,3, 4.jpg, 3.jpg,0.5315781,2,0.176264347,0.355471562,0.582595424,0.290755999,0
3, practice,3, vibration off,3,1,2, 1.jpg, 2.jpg,0.206677553,0.3490424,0.3490424, left,1,2,1, 2.jpg, 1.jpg,0.6212115,2,0.206677553,0.3490424,0.578794293,0.275426328,0
3, practice,3, vibration off,4,2,3, 2.jpg, 3.jpg,0.358181966,0.569745321,0.358181966, right,2,2,3, 2.jpg, 3.jpg,0.3973917,2,0.216551625,0.358181966,0.569745321,0.268568422,0
3, practice,3, vibration off,5,4,2, 4.jpg, 2.jpg,0.302042001,0.364707579,0.302042001, right,2,4,2, 4.jpg, 2.jpg,1.2906554,2,0.21991786,0.364707579,0.582527891,0.302042001,1
3, test,3, vibration off,1,2,4, 2.jpg, 4.jpg,0.332201416,0.302670058,0.332201416, right,2,2,4, 2.jpg, 4.jpg,1.2230825,2,0.167787674,0.332201416,0.584847675,0.302670058,1
3, test,3, vibration off,2,1,4, 1.jpg, 4.jpg,0.176264347,0.290755999,0.176264347, right,2,1,4, 1.jpg, 4.jpg,1.0369184,2,0.176264347,0.355471562,0.582595424,0.290755999,0
3, test,3, vibration off,3,2,4, 2.jpg, 4.jpg,0.3490424,0.275426328,0.275426328, left,1,4,2, 4.jpg, 2.jpg,0.5620378,2,0.206677553,0.3490424,0.578794293,0.275426328,0
3, test,3, vibration off,4,4,3, 4.jpg, 3.jpg,0.268568422,0.569745321,0.569745321, left,1,3,4, 3.jpg, 4.jpg,1.0699246,2,0.216551625,0.358181966,0.569745321,0.268568422,0
3, test,3, vibration off,5,1,2, 1.jpg, 2.jpg,0.21991786,0.364707579,0.364707579, left,1,2,1, 2.jpg, 1.jpg,1.2212011,2,0.21991786,0.364707579,0.582527891,0.302042001,1
3, test,3, vibration off,6,1,2, 1.jpg, 2.jpg,0.209090036,0.3895513,0.3895513, left,1,2,1, 2.jpg, 1.jpg,0.655422,2,0.209090036,0.3895513,0.587455063,0.336540119,0
3, test,3, vibration off,7,3,4, 3.jpg, 4.jpg,0.582464681,0.363378709,0.363378709, left,1,4,3, 4.jpg, 3.jpg,1.3576593,2,0.215508938,0.39060737,0.582464681,0.363378709,0
3, test,3, vibration off,8,3,4, 3.jpg, 4.jpg,0.545053358,0.369794555,0.545053358, right,2,3,4, 3.jpg, 4.jpg,1.1076911,2,0.219868403,0.430440014,0.545053358,0.369794555,0
3, test,3, vibration off,9,4,2, 4.jpg, 2.jpg,0.365747455,0.4539861,0.4539861, left,1,2,4, 2.jpg, 4.jpg,1.0068281,2,0.223820368,0.4539861,0.530883085,0.365747455,1
3, test,3, vibration off,10,2,4, 2.jpg, 4.jpg,0.485995524,0.36426522,0.485995524, right,2,2,4, 2.jpg, 4.jpg,0.6036766,2,0.25320591,0.485995524,0.507816291,0.36426522,0
3, test,3, vibration off,11,4,2, 4.jpg, 2.jpg,0.378430477,0.489357893,0.489357893, left,1,2,4, 2.jpg, 4.jpg,0.4481747,2,0.272116099,0.489357893,0.494989907,0.378430477,1
3, test,3, vibration off,12,1,3, 1.jpg, 3.jpg,0.234286576,0.446302549,0.234286576, right,2,1,3, 1.jpg, 3.jpg,0.9477497,2,0.234286576,0.484630844,0.446302549,0.406276663,0
3, test,3, vibration off,13,2,3, 2.jpg, 3.jpg,0.493007884,0.441292304,0.493007884, right,2,2,3, 2.jpg, 3.jpg,0.6591826,2,0.209829698,0.493007884,0.441292304,0.408056555,1
3, test,3, vibration off,14,2,3, 2.jpg, 3.jpg,0.496165246,0.424090899,0.496165246, right,2,2,3, 2.jpg, 3.jpg,0.625152,2,0.194746258,0.496165246,0.424090899,0.411853134,0
3, test,3, vibration off,15,2,1, 2.jpg, 1.jpg,0.498060855,0.254919143,0.498060855, right,2,2,1, 2.jpg, 1.jpg,1.0830447,2,0.254919143,0.498060855,0.410741903,0.425420016,1
3, test,3, vibration off,16,1,4, 1.jpg, 4.jpg,0.268446939,0.434571537,0.434571537, left,1,4,1, 4.jpg, 1.jpg,0.9093594,2,0.268446939,0.473753497,0.384469806,0.434571537,0
3, test,3, vibration off,17,4,1, 4.jpg, 1.jpg,0.467037886,0.260713561,0.467037886, right,2,4,1, 4.jpg, 1.jpg,0.6967833,2,0.260713561,0.427927548,0.397409959,0.467037886,1
3, test,3, vibration off,18,3,4, 3.jpg, 4.jpg,0.380302803,0.458160423,0.458160423, left,1,4,3, 4.jpg, 3.jpg,0.7114111,2,0.273570125,0.42862063,0.380302803,0.458160423,0
3, test,3, vibration off,19,3,1, 3.jpg, 1.jpg,0.39026973,0.269452755,0.39026973, right,2,3,1, 3.jpg, 1.jpg,0.45824,2,0.269452755,0.435371131,0.39026973,0.413401572,1
3, test,3, vibration off,20,1,2, 1.jpg, 2.jpg,0.268741649,0.425551488,0.425551488, left,1,2,1, 2.jpg, 1.jpg,0.6981711,2,0.268741649,0.425551488,0.408454439,0.410963982,0
3, test,3, vibration off,21,2,3, 2.jpg, 3.jpg,0.44190032,0.404768464,0.44190032, right,2,2,3, 2.jpg, 3.jpg,0.5696684,2,0.289598518,0.44190032,0.404768464,0.423231262,1
3, test,3, vibration off,22,2,1, 2.jpg, 1.jpg,0.419525056,0.299460569,0.419525056, right,2,2,1, 2.jpg, 1.jpg,0.6208684,2,0.299460569,0.419525056,0.422610309,0.389718337,1
3, test,3, vibration off,23,4,2, 4.jpg, 2.jpg,0.39059245,0.397611772,0.397611772, left,1,2,4, 2.jpg, 4.jpg,0.6075365,2,0.275422902,0.397611772,0.408863932,0.39059245,1
3, test,3, vibration off,24,2,3, 2.jpg, 3.jpg,0.379139537,0.405854252,0.379139537, right,2,2,3, 2.jpg, 3.jpg,0.5942689,2,0.266650787,0.379139537,0.405854252,0.398445672,0
3, test,3, vibration off,25,4,3, 4.jpg, 3.jpg,0.3844496,0.425425396,0.425425396, left,1,3,4, 3.jpg, 4.jpg,0.9524582,2,0.254259812,0.383103254,0.425425396,0.3844496,1
3, test,3, vibration off,26,3,2, 3.jpg, 2.jpg,0.44409494,0.426705428,0.44409494, right,2,3,2, 3.jpg, 2.jpg,0.7598591,2,0.251503025,0.426705428,0.44409494,0.389570929,1
3, test,3, vibration off,27,3,4, 3.jpg, 4.jpg,0.476699219,0.351861927,0.476699219, right,2,3,4, 3.jpg, 4.jpg,0.5560459,2,0.260664603,0.434578853,0.476699219,0.351861927,1
3, test,3, vibration off,28,1,2, 1.jpg, 2.jpg,0.254900351,0.456535155,0.456535155, left,1,2,1, 2.jpg, 1.jpg,0.6310278,2,0.254900351,0.456535155,0.471375184,0.358204472,1
3, test,3, vibration off,29,1,4, 1.jpg, 4.jpg,0.270226286,0.360838495,0.270226286, right,2,1,4, 1.jpg, 4.jpg,1.0450226,2,0.270226286,0.431125609,0.45401501,0.360838495,1
3, test,3, vibration off,30,4,3, 4.jpg, 3.jpg,0.36725969,0.441888062,0.441888062, left,1,3,4, 3.jpg, 4.jpg,0.8097575,2,0.231605059,0.434793002,0.441888062,0.36725969,1
3, test,3, vibration off,31,3,4, 3.jpg, 4.jpg,0.456731037,0.401609609,0.456731037, right,2,3,4, 3.jpg, 4.jpg,0.598591,2,0.233739069,0.473135831,0.456731037,0.401609609,1
3, test,3, vibration off,32,4,2, 4.jpg, 2.jpg,0.393803515,0.452508743,0.452508743, left,1,2,4, 2.jpg, 4.jpg,0.8350741,2,0.24432205,0.452508743,0.406064085,0.393803515,0
3, test,3, vibration off,33,4,1, 4.jpg, 1.jpg,0.402704902,0.193554899,0.402704902, right,2,4,1, 4.jpg, 1.jpg,1.1488108,2,0.193554899,0.458621481,0.401876712,0.402704902,1
3, test,3, vibration off,34,3,1, 3.jpg, 1.jpg,0.409321444,0.204964705,0.204964705, left,1,1,3, 1.jpg, 3.jpg,0.4841187,2,0.204964705,0.43001655,0.409321444,0.416668377,0
3, test,3, vibration off,35,1,3, 1.jpg, 3.jpg,0.22048214,0.424862287,0.424862287, left,1,3,1, 3.jpg, 1.jpg,0.7822551,2,0.22048214,0.429045935,0.424862287,0.419699964,0
3, test,3, vibration off,36,3,4, 3.jpg, 4.jpg,0.423948221,0.428911523,0.423948221, right,2,3,4, 3.jpg, 4.jpg,0.5198036,2,0.211101934,0.447650766,0.423948221,0.428911523,1
3, test,3, vibration off,37,2,4, 2.jpg, 4.jpg,0.456165741,0.39910528,0.456165741, right,2,2,4, 2.jpg, 4.jpg,0.6759704,2,0.219326053,0.456165741,0.43257228,0.39910528,0
3, test,3, vibration off,38,1,4, 1.jpg, 4.jpg,0.221341547,0.390289699,0.390289699, left,1,4,1, 4.jpg, 1.jpg,0.5937783,2,0.221341547,0.433155402,0.4363313,0.390289699,1
3, test,3, vibration off,39,4,1, 4.jpg, 1.jpg,0.411267062,0.214118114,0.411267062, right,2,4,1, 4.jpg, 1.jpg,0.504287,2,0.214118114,0.447660961,0.408906602,0.411267062,1
3, test,3, vibration off,40,3,2, 3.jpg, 2.jpg,0.40122215,0.447456341,0.447456341, left,1,2,3, 2.jpg, 3.jpg,0.495565,2,0.217505069,0.447456341,0.40122215,0.401024283,0
3, test,3, vibration off,41,2,1, 2.jpg, 1.jpg,0.458162882,0.249081937,0.458162882, right,2,2,1, 2.jpg, 1.jpg,0.4628536,2,0.249081937,0.458162882,0.382054645,0.370374616,1
3, test,3, vibration off,42,3,1, 3.jpg, 1.jpg,0.383924023,0.255981224,0.255981224, left,1,1,3, 1.jpg, 3.jpg,1.1675046,2,0.255981224,0.480978505,0.383924023,0.368787043,1
3, test,3, vibration off,43,3,2, 3.jpg, 2.jpg,0.401205729,0.511556199,0.511556199, left,1,2,3, 2.jpg, 3.jpg,0.6540156,2,0.288213763,0.511556199,0.401205729,0.38383929,0
3, test,3, vibration off,44,2,3, 2.jpg, 3.jpg,0.530811847,0.350203513,0.350203513, left,1,3,2, 3.jpg, 2.jpg,0.5833243,2,0.294374293,0.530811847,0.350203513,0.362927966,0
3, test,3, vibration off,45,1,2, 1.jpg, 2.jpg,0.308994906,0.512913286,0.308994906, right,2,1,2, 1.jpg, 2.jpg,1.0839361,2,0.308994906,0.512913286,0.336134109,0.367033206,0
3, test,3, vibration off,46,3,1, 3.jpg, 1.jpg,0.325220477,0.289973458,0.289973458, left,1,1,3, 1.jpg, 3.jpg,0.6479987,2,0.289973458,0.533187647,0.325220477,0.368488345,1
3, test,3, vibration off,47,4,2, 4.jpg, 2.jpg,0.34679011,0.537872242,0.537872242, left,1,2,4, 2.jpg, 4.jpg,0.4437122,2,0.29306391,0.537872242,0.357892701,0.34679011,1
3, test,3, vibration off,48,3,1, 3.jpg, 1.jpg,0.408168742,0.292135198,0.292135198, left,1,1,3, 1.jpg, 3.jpg,0.5080549,2,0.292135198,0.523160461,0.408168742,0.356952705,0
3, test,3, vibration off,49,2,3, 2.jpg, 3.jpg,0.527646571,0.394241012,0.394241012, left,1,3,2, 3.jpg, 2.jpg,1.4355657,2,0.293886334,0.527646571,0.394241012,0.356189797,0
3, test,3, vibration off,50,3,1, 3.jpg, 1.jpg,0.386662209,0.304272396,0.386662209, right,2,3,1, 3.jpg, 1.jpg,0.7085967,2,0.304272396,0.548355336,0.386662209,0.348042517,1
4, practice,1, vibration off,1,4,1, 8.jpg, 5.jpg,0.466504194,0.511076546,0.511076546, left,1,1,4, 5.jpg, 8.jpg,1.6520962,1,0.511076546,0.615232533,0.413504079,0.466504194,1
4, practice,1, vibration off,2,2,3, 6.jpg, 7.jpg,0.631199867,0.375335495,0.631199867, right,2,2,3, 6.jpg, 7.jpg,0.9878454,1,0.517796443,0.631199867,0.375335495,0.47234587,1
4, practice,1, vibration off,3,1,4, 5.jpg, 8.jpg,0.498939688,0.491193418,0.491193418, left,1,4,1, 8.jpg, 5.jpg,1.0315659,1,0.498939688,0.626315633,0.374984468,0.491193418,1
4, practice,1, vibration off,4,3,4, 7.jpg, 8.jpg,0.371343772,0.486122834,0.486122834, left,1,4,3, 8.jpg, 7.jpg,0.9124076,1,0.498193315,0.609226527,0.371343772,0.486122834,1
4, practice,1, vibration off,5,4,1, 8.jpg, 5.jpg,0.463675252,0.472267853,0.463675252, right,2,4,1, 8.jpg, 5.jpg,1.3325008,1,0.472267853,0.620106582,0.35386843,0.463675252,1
4, test,1, vibration off,1,4,3, 8.jpg, 7.jpg,0.466504194,0.413504079,0.413504079, left,1,3,4, 7.jpg, 8.jpg,0.4906718,1,0.511076546,0.615232533,0.413504079,0.466504194,0
4, test,1, vibration off,2,1,2, 5.jpg, 6.jpg,0.517796443,0.631199867,0.631199867, left,1,2,1, 6.jpg, 5.jpg,0.864432,1,0.517796443,0.631199867,0.375335495,0.47234587,1
4, test,1, vibration off,3,1,3, 5.jpg, 7.jpg,0.498939688,0.374984468,0.498939688, right,2,1,3, 5.jpg, 7.jpg,0.6532214,1,0.498939688,0.626315633,0.374984468,0.491193418,0
4, test,1, vibration off,4,1,4, 5.jpg, 8.jpg,0.498193315,0.486122834,0.486122834, left,1,4,1, 8.jpg, 5.jpg,1.0469403,1,0.498193315,0.609226527,0.371343772,0.486122834,1
4, test,1, vibration off,5,2,3, 6.jpg, 7.jpg,0.620106582,0.35386843,0.35386843, left,1,3,2, 7.jpg, 6.jpg,0.818673,1,0.472267853,0.620106582,0.35386843,0.463675252,0
4, test,1, vibration off,6,1,3, 5.jpg, 7.jpg,0.48900464,0.353156918,0.353156918, left,1,3,1, 7.jpg, 5.jpg,0.9187635,1,0.48900464,0.609411022,0.353156918,0.444784776,0
4, test,1, vibration off,7,3,4, 7.jpg, 8.jpg,0.351148204,0.459669582,0.459669582, left,1,4,3, 8.jpg, 7.jpg,1.1185141,1,0.498922937,0.661106815,0.351148204,0.459669582,1
4, test,1, vibration off,8,3,1, 7.jpg, 5.jpg,0.385479761,0.523305174,0.523305174, left,1,1,3, 5.jpg, 7.jpg,0.6660991,1,0.523305174,0.661043011,0.385479761,0.445975487,0
4, test,1, vibration off,9,4,3, 8.jpg, 7.jpg,0.477824508,0.38403906,0.477824508, right,2,4,3, 8.jpg, 7.jpg,1.023784,1,0.538202722,0.617130773,0.38403906,0.477824508,1
4, test,1, vibration off,10,1,4, 5.jpg, 8.jpg,0.538742055,0.494179332,0.494179332, left,1,4,1, 8.jpg, 5.jpg,0.9277977,1,0.538742055,0.61305354,0.400369013,0.494179332,0
4, test,1, vibration off,11,1,4, 5.jpg, 8.jpg,0.576408806,0.442060048,0.442060048, left,1,4,1, 8.jpg, 5.jpg,1.1557914,1,0.576408806,0.627053837,0.389573429,0.442060048,1
4, test,1, vibration off,12,2,3, 6.jpg, 7.jpg,0.6084257,0.368726719,0.6084257, right,2,2,3, 6.jpg, 7.jpg,1.2095265,1,0.58170588,0.6084257,0.368726719,0.429884006,0
4, test,1, vibration off,13,4,1, 8.jpg, 5.jpg,0.451621205,0.578706679,0.578706679, left,1,1,4, 5.jpg, 8.jpg,1.6587809,1,0.578706679,0.597368238,0.375355878,0.451621205,1
4, test,1, vibration off,14,4,3, 8.jpg, 7.jpg,0.453322749,0.38842331,0.453322749, right,2,4,3, 8.jpg, 7.jpg,1.3896759,1,0.542007718,0.603047222,0.38842331,0.453322749,1
4, test,1, vibration off,15,2,1, 6.jpg, 5.jpg,0.59667375,0.51169699,0.59667375, right,2,2,1, 6.jpg, 5.jpg,1.9425204,1,0.51169699,0.59667375,0.398928367,0.449059956,1
4, test,1, vibration off,16,3,4, 7.jpg, 8.jpg,0.371810296,0.445080478,0.445080478, left,1,4,3, 8.jpg, 7.jpg,2.1068245,1,0.513158928,0.577589974,0.371810296,0.445080478,0
4, test,1, vibration off,17,4,2, 8.jpg, 6.jpg,0.422775713,0.585694186,0.422775713, right,2,4,2, 8.jpg, 6.jpg,1.0034194,1,0.513426935,0.585694186,0.379887863,0.422775713,0
4, test,1, vibration off,18,3,1, 7.jpg, 5.jpg,0.373664559,0.505704724,0.505704724, left,1,1,3, 5.jpg, 7.jpg,2.6386038,1,0.505704724,0.54789599,0.373664559,0.418810463,0
4, test,1, vibration off,19,2,3, 6.jpg, 7.jpg,0.582335652,0.369915918,0.369915918, left,1,3,2, 7.jpg, 6.jpg,3.2313999,1,0.504573157,0.582335652,0.369915918,0.404711898,1
4, test,1, vibration off,20,2,4, 6.jpg, 8.jpg,0.588279021,0.429775493,0.588279021, right,2,2,4, 6.jpg, 8.jpg,2.3547616,1,0.511492418,0.588279021,0.34718102,0.429775493,0
4, test,1, vibration off,21,2,1, 6.jpg, 5.jpg,0.553509108,0.512951285,0.512951285, left,1,1,2, 5.jpg, 6.jpg,0.7485237,1,0.512951285,0.553509108,0.365459609,0.420212923,0
4, test,1, vibration off,22,2,3, 6.jpg, 7.jpg,0.552815737,0.364821817,0.552815737, right,2,2,3, 6.jpg, 7.jpg,2.8037314,1,0.539572991,0.552815737,0.364821817,0.410726764,1
4, test,1, vibration off,23,2,3, 6.jpg, 7.jpg,0.535255398,0.373035803,0.373035803, left,1,3,2, 7.jpg, 6.jpg,1.2600107,1,0.56095771,0.535255398,0.373035803,0.376882621,1
4, test,1, vibration off,24,2,4, 6.jpg, 8.jpg,0.524393705,0.358107826,0.358107826, left,1,4,2, 8.jpg, 6.jpg,2.9929475,1,0.575401102,0.524393705,0.364677663,0.358107826,1
4, test,1, vibration off,25,3,2, 7.jpg, 6.jpg,0.39083719,0.532040408,0.39083719, right,2,3,2, 7.jpg, 6.jpg,2.8717088,1,0.541014126,0.532040408,0.39083719,0.373729847,1
4, test,1, vibration off,26,4,3, 8.jpg, 7.jpg,0.398780507,0.371897574,0.398780507, right,2,4,3, 8.jpg, 7.jpg,1.7400346,1,0.536918816,0.511692898,0.371897574,0.398780507,1
4, test,1, vibration off,27,4,2, 8.jpg, 6.jpg,0.405865749,0.54671574,0.54671574, left,1,2,4, 6.jpg, 8.jpg,1.7169647,1,0.541079589,0.54671574,0.389383809,0.405865749,1
4, test,1, vibration off,28,4,2, 8.jpg, 6.jpg,0.403418308,0.570750529,0.403418308, right,2,4,2, 8.jpg, 6.jpg,1.1022472,1,0.559641612,0.570750529,0.408417182,0.403418308,0
4, test,1, vibration off,29,1,4, 5.jpg, 8.jpg,0.566867971,0.398536524,0.398536524, left,1,4,1, 8.jpg, 5.jpg,1.0580011,1,0.566867971,0.54476025,0.383885215,0.398536524,0
4, test,1, vibration off,30,2,4, 6.jpg, 8.jpg,0.559260499,0.407780991,0.407780991, left,1,4,2, 8.jpg, 6.jpg,0.6306803,1,0.562069061,0.559260499,0.406860111,0.407780991,0
4, test,1, vibration off,31,2,1, 6.jpg, 5.jpg,0.570453061,0.557017169,0.570453061, right,2,2,1, 6.jpg, 5.jpg,1.651311,1,0.557017169,0.570453061,0.389734908,0.40633374,0
4, test,1, vibration off,32,3,2, 7.jpg, 6.jpg,0.364845558,0.562455492,0.562455492, left,1,2,3, 6.jpg, 7.jpg,0.750751,1,0.587964414,0.562455492,0.364845558,0.430319959,0
4, test,1, vibration off,33,2,4, 6.jpg, 8.jpg,0.583546956,0.469700007,0.469700007, left,1,4,2, 8.jpg, 6.jpg,1.7121278,1,0.569423526,0.583546956,0.38651511,0.469700007,1
4, test,1, vibration off,34,3,2, 7.jpg, 6.jpg,0.411760625,0.565200904,0.565200904, left,1,2,3, 6.jpg, 7.jpg,1.4516388,1,0.56834307,0.565200904,0.411760625,0.45608609,1
4, test,1, vibration off,35,4,3, 8.jpg, 7.jpg,0.497188985,0.404213812,0.497188985, right,2,4,3, 8.jpg, 7.jpg,1.8877402,1,0.599079702,0.567372701,0.404213812,0.497188985,0
4, test,1, vibration off,36,4,3, 8.jpg, 7.jpg,0.476236411,0.380656038,0.380656038, left,1,3,4, 7.jpg, 8.jpg,0.4847043,1,0.614921267,0.558903517,0.380656038,0.476236411,1
4, test,1, vibration off,37,3,2, 7.jpg, 6.jpg,0.352549374,0.545721743,0.352549374, right,2,3,2, 7.jpg, 6.jpg,1.3670414,1,0.628075493,0.545721743,0.352549374,0.509842719,0
4, test,1, vibration off,38,2,1, 6.jpg, 5.jpg,0.538071442,0.631242143,0.538071442, right,2,2,1, 6.jpg, 5.jpg,1.7156072,1,0.631242143,0.538071442,0.347063514,0.530542784,1
4, test,1, vibration off,39,3,1, 7.jpg, 5.jpg,0.341152187,0.600609567,0.341152187, right,2,3,1, 7.jpg, 5.jpg,1.909319,1,0.600609567,0.562917382,0.341152187,0.525341883,0
4, test,1, vibration off,40,4,2, 8.jpg, 6.jpg,0.519319672,0.574174471,0.574174471, left,1,2,4, 6.jpg, 8.jpg,1.792025,1,0.598478627,0.574174471,0.340254534,0.519319672,1
4, test,1, vibration off,41,3,4, 7.jpg, 8.jpg,0.358175358,0.531828439,0.358175358, right,2,3,4, 7.jpg, 8.jpg,1.1358034,1,0.60144404,0.580661228,0.358175358,0.531828439,0
4, test,1, vibration off,42,1,2, 5.jpg, 6.jpg,0.630195312,0.582970551,0.630195312, right,2,1,2, 5.jpg, 6.jpg,1.3868787,1,0.630195312,0.582970551,0.366861123,0.522351056,1
4, test,1, vibration off,43,3,2, 7.jpg, 6.jpg,0.357029746,0.572586617,0.572586617, left,1,2,3, 6.jpg, 7.jpg,0.9552866,1,0.628568645,0.572586617,0.357029746,0.532129282,1
4, test,1, vibration off,44,1,3, 5.jpg, 7.jpg,0.636994371,0.384631609,0.636994371, right,2,1,3, 5.jpg, 7.jpg,0.739332,1,0.636994371,0.565568304,0.384631609,0.54344664,1
4, test,1, vibration off,45,1,4, 5.jpg, 8.jpg,0.650015763,0.52618086,0.650015763, right,2,1,4, 5.jpg, 8.jpg,0.9287942,1,0.650015763,0.5781911,0.386636695,0.52618086,1
4, test,1, vibration off,46,2,1, 6.jpg, 5.jpg,0.554193525,0.626001871,0.626001871, left,1,1,2, 5.jpg, 6.jpg,0.9203247,1,0.626001871,0.554193525,0.376640317,0.575008411,1
4, test,1, vibration off,47,2,4, 6.jpg, 8.jpg,0.585886385,0.546233567,0.546233567, left,1,4,2, 8.jpg, 6.jpg,1.9186068,1,0.606772055,0.585886385,0.329837755,0.546233567,0
4, test,1, vibration off,48,3,1, 7.jpg, 5.jpg,0.322472207,0.609756275,0.609756275, left,1,1,3, 5.jpg, 7.jpg,1.5021686,1,0.609756275,0.601875425,0.322472207,0.544792119,0
4, test,1, vibration off,49,2,4, 6.jpg, 8.jpg,0.595767883,0.559135463,0.559135463, left,1,4,2, 8.jpg, 6.jpg,1.5949656,1,0.606158462,0.595767883,0.298351175,0.559135463,0
4, test,1, vibration off,50,1,4, 5.jpg, 8.jpg,0.585330427,0.528689445,0.528689445, left,1,4,1, 8.jpg, 5.jpg,3.9764695,1,0.585330427,0.596690297,0.304980312,0.528689445,1
4, practice,2, vibration during choice,1,2,4, 10.jpg, 12.jpg,0.615232533,0.466504194,0.466504194, left,1,4,2, 12.jpg, 10.jpg,0.8452272,1,0.511076546,0.615232533,0.413504079,0.466504194,1
4, practice,2, vibration during choice,2,4,2, 12.jpg, 10.jpg,0.47234587,0.631199867,0.47234587, right,2,4,2, 12.jpg, 10.jpg,0.683518,1,0.517796443,0.631199867,0.375335495,0.47234587,0
4, practice,2, vibration during choice,3,3,2, 11.jpg, 10.jpg,0.374984468,0.626315633,0.374984468, right,2,3,2, 11.jpg, 10.jpg,1.2167298,1,0.498939688,0.626315633,0.374984468,0.491193418,0
4, practice,2, vibration during choice,4,2,1, 10.jpg, 9.jpg,0.609226527,0.498193315,0.498193315, left,1,1,2, 9.jpg, 10.jpg,1.1310248,1,0.498193315,0.609226527,0.371343772,0.486122834,1
4, practice,2, vibration during choice,5,3,4, 11.jpg, 12.jpg,0.35386843,0.463675252,0.463675252, left,1,4,3, 12.jpg, 11.jpg,0.9842336,1,0.472267853,0.620106582,0.35386843,0.463675252,1
4, test,2, vibration during choice,1,3,2, 11.jpg, 10.jpg,0.413504079,0.615232533,0.413504079, right,2,3,2, 11.jpg, 10.jpg,1.0157808,1,0.511076546,0.615232533,0.413504079,0.466504194,1
4, test,2, vibration during choice,2,3,2, 11.jpg, 10.jpg,0.375335495,0.631199867,0.375335495, right,2,3,2, 11.jpg, 10.jpg,1.1272054,1,0.517796443,0.631199867,0.375335495,0.47234587,1
4, test,2, vibration during choice,3,4,3, 12.jpg, 11.jpg,0.491193418,0.374984468,0.374984468, left,1,3,4, 11.jpg, 12.jpg,1.5634544,1,0.498939688,0.626315633,0.374984468,0.491193418,0
4, test,2, vibration during choice,4,2,3, 10.jpg, 11.jpg,0.609226527,0.371343772,0.609226527, right,2,2,3, 10.jpg, 11.jpg,1.8970867,1,0.498193315,0.609226527,0.371343772,0.486122834,1
4, test,2, vibration during choice,5,3,4, 11.jpg, 12.jpg,0.35386843,0.463675252,0.463675252, left,1,4,3, 12.jpg, 11.jpg,1.1010359,1,0.472267853,0.620106582,0.35386843,0.463675252,1
4, test,2, vibration during choice,6,3,2, 11.jpg, 10.jpg,0.353156918,0.609411022,0.609411022, left,1,2,3, 10.jpg, 11.jpg,1.9322841,1,0.48900464,0.609411022,0.353156918,0.444784776,1
4, test,2, vibration during choice,7,2,1, 10.jpg, 9.jpg,0.661106815,0.498922937,0.661106815, right,2,2,1, 10.jpg, 9.jpg,1.3797471,1,0.498922937,0.661106815,0.351148204,0.459669582,1
4, test,2, vibration during choice,8,4,3, 12.jpg, 11.jpg,0.445975487,0.385479761,0.445975487, right,2,4,3, 12.jpg, 11.jpg,1.5514633,1,0.523305174,0.661043011,0.385479761,0.445975487,1
