subject, block_type, block, condition, trial, right_offer, left_offer, offer_right_image, offer_left_image, exp_value_right, exp_value_left, exp_value_chosen, choice_location, choice_key, choice_card, unchosen_card, chosen_card_image, unchosen_card_image, rt, randomwalk_counter, exp_value1, exp_value2, exp_value3, exp_value4, reward
1, practice,1, vibration during choice,1,1,4, 9.jpg, 12.jpg,0.511076546,0.466504194,0.466504194, left,1,4,1, 12.jpg, 9.jpg,3.5166904,1,0.511076546,0.615232533,0.413504079,0.466504194,1
1, practice,1, vibration during choice,2,1,3, 9.jpg, 11.jpg,0.517796443,0.375335495,0.517796443, right,2,1,3, 9.jpg, 11.jpg,1.8658108,1,0.517796443,0.631199867,0.375335495,0.47234587,0
1, practice,1, vibration during choice,3,3,4, 11.jpg, 12.jpg,0.374984468,0.491193418,0.491193418, left,1,4,3, 12.jpg, 11.jpg,1.9986494,1,0.498939688,0.626315633,0.374984468,0.491193418,0
1, practice,1, vibration during choice,4,1,2, 9.jpg, 10.jpg,0.498193315,0.609226527,0.498193315, right,2,1,2, 9.jpg, 10.jpg,1.9144186,1,0.498193315,0.609226527,0.371343772,0.486122834,1
1, practice,1, vibration during choice,5,3,2, 11.jpg, 10.jpg,0.35386843,0.620106582,0.35386843, right,2,3,2, 11.jpg, 10.jpg,1.3287681,1,0.472267853,0.620106582,0.35386843,0.463675252,0
1, test,1, vibration during choice,1,4,1, 12.jpg, 9.jpg,0.466504194,0.511076546,0.466504194, right,2,4,1, 12.jpg, 9.jpg,1.3604847,1,0.511076546,0.615232533,0.413504079,0.466504194,1
1, test,1, vibration during choice,2,3,1, 11.jpg, 9.jpg,0.375335495,0.517796443,0.517796443, left,1,1,3, 9.jpg, 11.jpg,2.1335694,1,0.517796443,0.631199867,0.375335495,0.47234587,1
1, test,1, vibration during choice,3,1,2, 9.jpg, 10.jpg,0.498939688,0.626315633,0.626315633, left,1,2,1, 10.jpg, 9.jpg,1.7715851,1,0.498939688,0.626315633,0.374984468,0.491193418,0
1, test,1, vibration during choice,4,3,4, 11.jpg, 12.jpg,0.371343772,0.486122834,0.371343772, right,2,3,4, 11.jpg, 12.jpg,2.681043,1,0.498193315,0.609226527,0.371343772,0.486122834,1
1, test,1, vibration during choice,5,2,1, 10.jpg, 9.jpg,0.620106582,0.472267853,0.620106582, right,2,2,1, 10.jpg, 9.jpg,3.5046516,1,0.472267853,0.620106582,0.35386843,0.463675252,1
1, test,1, vibration during choice,6,3,1, 11.jpg, 9.jpg,0.353156918,0.48900464,0.48900464, left,1,1,3, 9.jpg, 11.jpg,2.924515,1,0.48900464,0.609411022,0.353156918,0.444784776,0
1, test,1, vibration during choice,7,3,4, 11.jpg, 12.jpg,0.351148204,0.459669582,0.459669582, left,1,4,3, 12.jpg, 11.jpg,2.5161633,1,0.498922937,0.661106815,0.351148204,0.459669582,0
1, test,1, vibration during choice,8,1,3, 9.jpg, 11.jpg,0.523305174,0.385479761,0.523305174, right,2,1,3, 9.jpg, 11.jpg,3.1234818,1,0.523305174,0.661043011,0.385479761,0.445975487,0
1, test,1, vibration during choice,9,4,2, 12.jpg, 10.jpg,0.477824508,0.617130773,0.617130773, left,1,2,4, 10.jpg, 12.jpg,1.7077843,1,0.538202722,0.617130773,0.38403906,0.477824508,1
1, test,1, vibration during choice,10,4,3, 12.jpg, 11.jpg,0.494179332,0.400369013,0.400369013, left,1,3,4, 11.jpg, 12.jpg,1.5268721,1,0.538742055,0.61305354,0.400369013,0.494179332,0
1, test,1, vibration during choice,11,4,1, 12.jpg, 9.jpg,0.442060048,0.576408806,0.442060048, right,2,4,1, 12.jpg, 9.jpg,3.2778326,1,0.576408806,0.627053837,0.389573429,0.442060048,0
1, test,1, vibration during choice,12,2,1, 10.jpg, 9.jpg,0.6084257,0.58170588,0.6084257, right,2,2,1, 10.jpg, 9.jpg,2.3419105,1,0.58170588,0.6084257,0.368726719,0.429884006,0
1, test,1, vibration during choice,13,2,3, 10.jpg, 11.jpg,0.597368238,0.375355878,0.375355878, left,1,3,2, 11.jpg, 10.jpg,4.6363651,1,0.578706679,0.597368238,0.375355878,0.451621205,0
1, test,1, vibration during choice,14,2,1, 10.jpg, 9.jpg,0.603047222,0.542007718,0.542007718, left,1,1,2, 9.jpg, 10.jpg,1.5445192,1,0.542007718,0.603047222,0.38842331,0.453322749,1
1, test,1, vibration during choice,15,2,1, 10.jpg, 9.jpg,0.59667375,0.51169699,0.51169699, left,1,1,2, 9.jpg, 10.jpg,2.1517655,1,0.51169699,0.59667375,0.398928367,0.449059956,0
1, test,1, vibration during choice,16,4,3, 12.jpg, 11.jpg,0.445080478,0.371810296,0.445080478, right,2,4,3, 12.jpg, 11.jpg,4.6982367,1,0.513158928,0.577589974,0.371810296,0.445080478,1
1, test,1, vibration during choice,17,4,1, 12.jpg, 9.jpg,0.422775713,0.513426935,0.513426935, left,1,1,4, 9.jpg, 12.jpg,1.3918715,1,0.513426935,0.585694186,0.379887863,0.422775713,1
1, test,1, vibration during choice,18,1,2, 9.jpg, 10.jpg,0.505704724,0.54789599,0.505704724, right,2,1,2, 9.jpg, 10.jpg,12.862873,1,0.505704724,0.54789599,0.373664559,0.418810463,0
1, test,1, vibration during choice,19,1,2, 9.jpg, 10.jpg,0.504573157,0.582335652,0.504573157, right,2,1,2, 9.jpg, 10.jpg,1.357353,1,0.504573157,0.582335652,0.369915918,0.404711898,1
1, test,1, vibration during choice,20,4,3, 12.jpg, 11.jpg,0.429775493,0.34718102,0.429775493, right,2,4,3, 12.jpg, 11.jpg,0.8447971,1,0.511492418,0.588279021,0.34718102,0.429775493,0
1, test,1, vibration during choice,21,2,1, 10.jpg, 9.jpg,0.553509108,0.512951285,0.512951285, left,1,1,2, 9.jpg, 10.jpg,1.4134632,1,0.512951285,0.553509108,0.365459609,0.420212923,0
1, test,1, vibration during choice,22,3,4, 11.jpg, 12.jpg,0.364821817,0.410726764,0.364821817, right,2,3,4, 11.jpg, 12.jpg,1.2133078,1,0.539572991,0.552815737,0.364821817,0.410726764,0
1, test,1, vibration during choice,23,4,2, 12.jpg, 10.jpg,0.376882621,0.535255398,0.376882621, right,2,4,2, 12.jpg, 10.jpg,1.0646009,1,0.56095771,0.535255398,0.373035803,0.376882621,1
1, test,1, vibration during choice,24,1,3, 9.jpg, 11.jpg,0.575401102,0.364677663,0.575401102, right,2,1,3, 9.jpg, 11.jpg,2.8228173,1,0.575401102,0.524393705,0.364677663,0.358107826,0
1, test,1, vibration during choice,25,4,2, 12.jpg, 10.jpg,0.373729847,0.532040408,0.373729847, right,2,4,2, 12.jpg, 10.jpg,1.4443946,1,0.541014126,0.532040408,0.39083719,0.373729847,1
1, test,1, vibration during choice,26,3,2, 11.jpg, 10.jpg,0.371897574,0.511692898,0.511692898, left,1,2,3, 10.jpg, 11.jpg,1.8555312,1,0.536918816,0.511692898,0.371897574,0.398780507,0
1, test,1, vibration during choice,27,2,4, 10.jpg, 12.jpg,0.54671574,0.405865749,0.54671574, right,2,2,4, 10.jpg, 12.jpg,1.4881159,1,0.541079589,0.54671574,0.389383809,0.405865749,0
1, test,1, vibration during choice,28,3,4, 11.jpg, 12.jpg,0.408417182,0.403418308,0.403418308, left,1,4,3, 12.jpg, 11.jpg,3.494835,1,0.559641612,0.570750529,0.408417182,0.403418308,0
1, test,1, vibration during choice,29,3,1, 11.jpg, 9.jpg,0.383885215,0.566867971,0.566867971, left,1,1,3, 9.jpg, 11.jpg,1.6305677,1,0.566867971,0.54476025,0.383885215,0.398536524,1
1, test,1, vibration during choice,30,3,2, 11.jpg, 10.jpg,0.406860111,0.559260499,0.406860111, right,2,3,2, 11.jpg, 10.jpg,2.2691948,1,0.562069061,0.559260499,0.406860111,0.407780991,1
1, test,1, vibration during choice,31,1,4, 9.jpg, 12.jpg,0.557017169,0.40633374,0.40633374, left,1,4,1, 12.jpg, 9.jpg,2.6181222,1,0.557017169,0.570453061,0.389734908,0.40633374,1
1, test,1, vibration during choice,32,4,1, 12.jpg, 9.jpg,0.430319959,0.587964414,0.430319959, right,2,4,1, 12.jpg, 9.jpg,1.8370522,1,0.587964414,0.562455492,0.364845558,0.430319959,0
1, test,1, vibration during choice,33,3,4, 11.jpg, 12.jpg,0.38651511,0.469700007,0.469700007, left,1,4,3, 12.jpg, 11.jpg,2.3818198,1,0.569423526,0.583546956,0.38651511,0.469700007,0
1, test,1, vibration during choice,34,3,2, 11.jpg, 10.jpg,0.411760625,0.565200904,0.565200904, left,1,2,3, 10.jpg, 11.jpg,0.0881316,1,0.56834307,0.565200904,0.411760625,0.45608609,1
1, test,1, vibration during choice,35,2,3, 10.jpg, 11.jpg,0.567372701,0.404213812,0.404213812, left,1,3,2, 11.jpg, 10.jpg,2.2408842,1,0.599079702,0.567372701,0.404213812,0.497188985,0
1, test,1, vibration during choice,36,2,1, 10.jpg, 9.jpg,0.558903517,0.614921267,0.614921267, left,1,1,2, 9.jpg, 10.jpg,3.5809059,1,0.614921267,0.558903517,0.380656038,0.476236411,0
1, test,1, vibration during choice,37,4,1, 12.jpg, 9.jpg,0.509842719,0.628075493,0.628075493, left,1,1,4, 9.jpg, 12.jpg,1.6384525,1,0.628075493,0.545721743,0.352549374,0.509842719,0
1, test,1, vibration during choice,38,4,2, 12.jpg, 10.jpg,0.530542784,0.538071442,0.530542784, right,2,4,2, 12.jpg, 10.jpg,1.3678076,1,0.631242143,0.538071442,0.347063514,0.530542784,0
1, test,1, vibration during choice,39,4,3, 12.jpg, 11.jpg,0.525341883,0.341152187,0.525341883, right,2,4,3, 12.jpg, 11.jpg,2.3654138,1,0.600609567,0.562917382,0.341152187,0.525341883,0
1, test,1, vibration during choice,40,4,3, 12.jpg, 11.jpg,0.519319672,0.340254534,0.340254534, left,1,3,4, 11.jpg, 12.jpg,2.0688121,1,0.598478627,0.574174471,0.340254534,0.519319672,0
1, test,1, vibration during choice,41,2,4, 10.jpg, 12.jpg,0.580661228,0.531828439,0.580661228, right,2,2,4, 10.jpg, 12.jpg,5.9359392,1,0.60144404,0.580661228,0.358175358,0.531828439,1
1, test,1, vibration during choice,42,3,1, 11.jpg, 9.jpg,0.366861123,0.630195312,0.630195312, left,1,1,3, 9.jpg, 11.jpg,0.8687776,1,0.630195312,0.582970551,0.366861123,0.522351056,1
1, test,1, vibration during choice,43,1,3, 9.jpg, 11.jpg,0.628568645,0.357029746,0.357029746, left,1,3,1, 11.jpg, 9.jpg,5.2181473,1,0.628568645,0.572586617,0.357029746,0.532129282,0
1, test,1, vibration during choice,44,2,3, 10.jpg, 11.jpg,0.565568304,0.384631609,0.384631609, left,1,3,2, 11.jpg, 10.jpg,3.9408615,1,0.636994371,0.565568304,0.384631609,0.54344664,0
1, test,1, vibration during choice,45,1,3, 9.jpg, 11.jpg,0.650015763,0.386636695,0.650015763, right,2,1,3, 9.jpg, 11.jpg,0.8369841,1,0.650015763,0.5781911,0.386636695,0.52618086,1
1, test,1, vibration during choice,46,3,2, 11.jpg, 10.jpg,0.376640317,0.554193525,0.554193525, left,1,2,3, 10.jpg, 11.jpg,1.0777195,1,0.626001871,0.554193525,0.376640317,0.575008411,0
1, test,1, vibration during choice,47,2,4, 10.jpg, 12.jpg,0.585886385,0.546233567,0.546233567, left,1,4,2, 12.jpg, 10.jpg,1.060545,1,0.606772055,0.585886385,0.329837755,0.546233567,0
1, test,1, vibration during choice,48,4,1, 12.jpg, 9.jpg,0.544792119,0.609756275,0.609756275, left,1,1,4, 9.jpg, 12.jpg,1.0802436,1,0.609756275,0.601875425,0.322472207,0.544792119,0
1, test,1, vibration during choice,49,2,1, 10.jpg, 9.jpg,0.595767883,0.606158462,0.606158462, left,1,1,2, 9.jpg, 10.jpg,2.7562049,1,0.606158462,0.595767883,0.298351175,0.559135463,0
1, test,1, vibration during choice,50,3,4, 11.jpg, 12.jpg,0.304980312,0.528689445,0.528689445, left,1,4,3, 12.jpg, 11.jpg,2.3980124,1,0.585330427,0.596690297,0.304980312,0.528689445,1
1, practice,2, vibration off,1,4,1, 12.jpg, 9.jpg,0.466504194,0.511076546,0.511076546, left,1,1,4, 9.jpg, 12.jpg,3.4613387,1,0.511076546,0.615232533,0.413504079,0.466504194,1
1, practice,2, vibration off,2,3,4, 11.jpg, 12.jpg,0.375335495,0.47234587,0.375335495, right,2,3,4, 11.jpg, 12.jpg,2.1044064,1,0.517796443,0.631199867,0.375335495,0.47234587,0
1, practice,2, vibration off,3,2,4, 10.jpg, 12.jpg,0.626315633,0.491193418,0.626315633, right,2,2,4, 10.jpg, 12.jpg,2.1188232,1,0.498939688,0.626315633,0.374984468,0.491193418,0
1, practice,2, vibration off,4,2,4, 10.jpg, 12.jpg,0.609226527,0.486122834,0.486122834, left,1,4,2, 12.jpg, 10.jpg,1.9312095,1,0.498193315,0.609226527,0.371343772,0.486122834,1
1, practice,2, vibration off,5,1,4, 9.jpg, 12.jpg,0.472267853,0.463675252,0.472267853, right,2,1,4, 9.jpg, 12.jpg,1.5573337,1,0.472267853,0.620106582,0.35386843,0.463675252,1
1, test,2, vibration off,1,3,1, 3.jpg, 1.jpg,0.413504079,0.511076546,0.511076546, left,1,1,3, 1.jpg, 3.jpg,2.569041,1,0.511076546,0.615232533,0.413504079,0.466504194,0
1, test,2, vibration off,2,2,3, 2.jpg, 3.jpg,0.631199867,0.375335495,0.631199867, right,2,2,3, 2.jpg, 3.jpg,2.5691048,1,0.517796443,0.631199867,0.375335495,0.47234587,0
1, test,2, vibration off,3,1,4, 1.jpg, 4.jpg,0.498939688,0.491193418,0.491193418, left,1,4,1, 4.jpg, 1.jpg,2.9100615,1,0.498939688,0.626315633,0.374984468,0.491193418,1
1, test,2, vibration off,4,2,3, 2.jpg, 3.jpg,0.609226527,0.371343772,0.371343772, left,1,3,2, 3.jpg, 2.jpg,1.5269833,1,0.498193315,0.609226527,0.371343772,0.486122834,0
1, test,2, vibration off,5,2,3, 2.jpg, 3.jpg,0.620106582,0.35386843,0.620106582, right,2,2,3, 2.jpg, 3.jpg,0.8418567,1,0.472267853,0.620106582,0.35386843,0.463675252,0
1, test,2, vibration off,6,2,3, 2.jpg, 3.jpg,0.609411022,0.353156918,0.609411022, right,2,2,3, 2.jpg, 3.jpg,1.2173756,1,0.48900464,0.609411022,0.353156918,0.444784776,1
1, test,2, vibration off,7,1,4, 1.jpg, 4.jpg,0.498922937,0.459669582,0.459669582, left,1,4,1, 4.jpg, 1.jpg,2.8250735,1,0.498922937,0.661106815,0.351148204,0.459669582,0
1, test,2, vibration off,8,2,4, 2.jpg, 4.jpg,0.661043011,0.445975487,0.661043011, right,2,2,4, 2.jpg, 4.jpg,1.3852553,1,0.523305174,0.661043011,0.385479761,0.445975487,1
1, test,2, vibration off,9,2,4, 2.jpg, 4.jpg,0.617130773,0.477824508,0.477824508, left,1,4,2, 4.jpg, 2.jpg,1.7873756,1,0.538202722,0.617130773,0.38403906,0.477824508,0
1, test,2, vibration off,10,2,4, 2.jpg, 4.jpg,0.61305354,0.494179332,0.61305354, right,2,2,4, 2.jpg, 4.jpg,0.7524156,1,0.538742055,0.61305354,0.400369013,0.494179332,1
1, test,2, vibration off,11,1,4, 1.jpg, 4.jpg,0.576408806,0.442060048,0.576408806, right,2,1,4, 1.jpg, 4.jpg,1.9611174,1,0.576408806,0.627053837,0.389573429,0.442060048,1
1, test,2, vibration off,12,1,2, 1.jpg, 2.jpg,0.58170588,0.6084257,0.6084257, left,1,2,1, 2.jpg, 1.jpg,1.1109287,1,0.58170588,0.6084257,0.368726719,0.429884006,1
1, test,2, vibration off,13,3,4, 3.jpg, 4.jpg,0.375355878,0.451621205,0.451621205, left,1,4,3, 4.jpg, 3.jpg,1.5128693,1,0.578706679,0.597368238,0.375355878,0.451621205,0
1, test,2, vibration off,14,2,3, 2.jpg, 3.jpg,0.603047222,0.38842331,0.603047222, right,2,2,3, 2.jpg, 3.jpg,1.6800478,1,0.542007718,0.603047222,0.38842331,0.453322749,1
1, test,2, vibration off,15,1,3, 1.jpg, 3.jpg,0.51169699,0.398928367,0.51169699, right,2,1,3, 1.jpg, 3.jpg,1.8121714,1,0.51169699,0.59667375,0.398928367,0.449059956,0
1, test,2, vibration off,16,3,1, 3.jpg, 1.jpg,0.371810296,0.513158928,0.371810296, right,2,3,1, 3.jpg, 1.jpg,0.9521828,1,0.513158928,0.577589974,0.371810296,0.445080478,0
1, test,2, vibration off,17,2,1, 2.jpg, 1.jpg,0.585694186,0.513426935,0.585694186, right,2,2,1, 2.jpg, 1.jpg,1.8295874,1,0.513426935,0.585694186,0.379887863,0.422775713,1
1, test,2, vibration off,18,4,1, 4.jpg, 1.jpg,0.418810463,0.505704724,0.505704724, left,1,1,4, 1.jpg, 4.jpg,1.57287,1,0.505704724,0.54789599,0.373664559,0.418810463,0
1, test,2, vibration off,19,2,3, 2.jpg, 3.jpg,0.582335652,0.369915918,0.582335652, right,2,2,3, 2.jpg, 3.jpg,1.6088781,1,0.504573157,0.582335652,0.369915918,0.404711898,1
1, test,2, vibration off,20,1,2, 1.jpg, 2.jpg,0.511492418,0.588279021,0.511492418, right,2,1,2, 1.jpg, 2.jpg,2.6430614,1,0.511492418,0.588279021,0.34718102,0.429775493,0
1, test,2, vibration off,21,2,3, 2.jpg, 3.jpg,0.553509108,0.365459609,0.553509108, right,2,2,3, 2.jpg, 3.jpg,1.6452698,1,0.512951285,0.553509108,0.365459609,0.420212923,0
1, test,2, vibration off,22,4,1, 4.jpg, 1.jpg,0.410726764,0.539572991,0.410726764, right,2,4,1, 4.jpg, 1.jpg,1.6249168,1,0.539572991,0.552815737,0.364821817,0.410726764,0
1, test,2, vibration off,23,4,3, 4.jpg, 3.jpg,0.376882621,0.373035803,0.373035803, left,1,3,4, 3.jpg, 4.jpg,1.969248,1,0.56095771,0.535255398,0.373035803,0.376882621,0
1, test,2, vibration off,24,1,3, 1.jpg, 3.jpg,0.575401102,0.364677663,0.364677663, left,1,3,1, 3.jpg, 1.jpg,1.9964486,1,0.575401102,0.524393705,0.364677663,0.358107826,0
1, test,2, vibration off,25,1,4, 1.jpg, 4.jpg,0.541014126,0.373729847,0.541014126, right,2,1,4, 1.jpg, 4.jpg,4.6978214,1,0.541014126,0.532040408,0.39083719,0.373729847,1
1, test,2, vibration off,26,1,3, 1.jpg, 3.jpg,0.536918816,0.371897574,0.536918816, right,2,1,3, 1.jpg, 3.jpg,1.8359693,1,0.536918816,0.511692898,0.371897574,0.398780507,0
1, test,2, vibration off,27,4,3, 4.jpg, 3.jpg,0.405865749,0.389383809,0.389383809, left,1,3,4, 3.jpg, 4.jpg,1.1017352,1,0.541079589,0.54671574,0.389383809,0.405865749,0
1, test,2, vibration off,28,2,1, 2.jpg, 1.jpg,0.570750529,0.559641612,0.570750529, right,2,2,1, 2.jpg, 1.jpg,2.4473036,1,0.559641612,0.570750529,0.408417182,0.403418308,1
1, test,2, vibration off,29,1,3, 1.jpg, 3.jpg,0.566867971,0.383885215,0.566867971, right,2,1,3, 1.jpg, 3.jpg,1.9604266,1,0.566867971,0.54476025,0.383885215,0.398536524,0
1, test,2, vibration off,30,1,2, 1.jpg, 2.jpg,0.562069061,0.559260499,0.559260499, left,1,2,1, 2.jpg, 1.jpg,1.0916283,1,0.562069061,0.559260499,0.406860111,0.407780991,0
1, test,2, vibration off,31,3,2, 3.jpg, 2.jpg,0.389734908,0.570453061,0.570453061, left,1,2,3, 2.jpg, 3.jpg,1.4390206,1,0.557017169,0.570453061,0.389734908,0.40633374,1
1, test,2, vibration off,32,4,2, 4.jpg, 2.jpg,0.430319959,0.562455492,0.430319959, right,2,4,2, 4.jpg, 2.jpg,2.0326451,1,0.587964414,0.562455492,0.364845558,0.430319959,0
1, test,2, vibration off,33,1,2, 1.jpg, 2.jpg,0.569423526,0.583546956,0.583546956, left,1,2,1, 2.jpg, 1.jpg,0.626335,1,0.569423526,0.583546956,0.38651511,0.469700007,1
1, test,2, vibration off,34,4,1, 4.jpg, 1.jpg,0.45608609,0.56834307,0.56834307, left,1,1,4, 1.jpg, 4.jpg,3.0052111,1,0.56834307,0.565200904,0.411760625,0.45608609,0
1, test,2, vibration off,35,2,1, 2.jpg, 1.jpg,0.567372701,0.599079702,0.567372701, right,2,2,1, 2.jpg, 1.jpg,1.113752,1,0.599079702,0.567372701,0.404213812,0.497188985,1
1, test,2, vibration off,36,2,4, 2.jpg, 4.jpg,0.558903517,0.476236411,0.558903517, right,2,2,4, 2.jpg, 4.jpg,1.7413606,1,0.614921267,0.558903517,0.380656038,0.476236411,1
1, test,2, vibration off,37,4,2, 4.jpg, 2.jpg,0.509842719,0.545721743,0.545721743, left,1,2,4, 2.jpg, 4.jpg,1.173564,1,0.628075493,0.545721743,0.352549374,0.509842719,1
1, test,2, vibration off,38,4,2, 4.jpg, 2.jpg,0.530542784,0.538071442,0.538071442, left,1,2,4, 2.jpg, 4.jpg,0.9137622,1,0.631242143,0.538071442,0.347063514,0.530542784,0
1, test,2, vibration off,39,4,2, 4.jpg, 2.jpg,0.525341883,0.562917382,0.562917382, left,1,2,4, 2.jpg, 4.jpg,1.5146826,1,0.600609567,0.562917382,0.341152187,0.525341883,0
1, test,2, vibration off,40,1,4, 1.jpg, 4.jpg,0.598478627,0.519319672,0.519319672, left,1,4,1, 4.jpg, 1.jpg,2.0214701,1,0.598478627,0.574174471,0.340254534,0.519319672,1
1, test,2, vibration off,41,1,2, 1.jpg, 2.jpg,0.60144404,0.580661228,0.580661228, left,1,2,1, 2.jpg, 1.jpg,1.7528108,1,0.60144404,0.580661228,0.358175358,0.531828439,1
1, test,2, vibration off,42,3,2, 3.jpg, 2.jpg,0.366861123,0.582970551,0.582970551, left,1,2,3, 2.jpg, 3.jpg,1.3556669,1,0.630195312,0.582970551,0.366861123,0.522351056,1
1, test,2, vibration off,43,3,4, 3.jpg, 4.jpg,0.357029746,0.532129282,0.357029746, right,2,3,4, 3.jpg, 4.jpg,2.1153538,1,0.628568645,0.572586617,0.357029746,0.532129282,1
1, test,2, vibration off,44,2,3, 2.jpg, 3.jpg,0.565568304,0.384631609,0.565568304, right,2,2,3, 2.jpg, 3.jpg,1.2664804,1,0.636994371,0.565568304,0.384631609,0.54344664,1
1, test,2, vibration off,45,2,1, 2.jpg, 1.jpg,0.5781911,0.650015763,0.5781911, right,2,2,1, 2.jpg, 1.jpg,1.412293,1,0.650015763,0.5781911,0.386636695,0.52618086,0
1, test,2, vibration off,46,4,2, 4.jpg, 2.jpg,0.575008411,0.554193525,0.554193525, left,1,2,4, 2.jpg, 4.jpg,1.4452165,1,0.626001871,0.554193525,0.376640317,0.575008411,1
1, test,2, vibration off,47,3,4, 3.jpg, 4.jpg,0.329837755,0.546233567,0.329837755, right,2,3,4, 3.jpg, 4.jpg,2.2289688,1,0.606772055,0.585886385,0.329837755,0.546233567,0
1, test,2, vibration off,48,3,2, 3.jpg, 2.jpg,0.322472207,0.601875425,0.601875425, left,1,2,3, 2.jpg, 3.jpg,1.0622979,1,0.609756275,0.601875425,0.322472207,0.544792119,1
1, test,2, vibration off,49,3,2, 3.jpg, 2.jpg,0.298351175,0.595767883,0.595767883, left,1,2,3, 2.jpg, 3.jpg,0.9415725,1,0.606158462,0.595767883,0.298351175,0.559135463,1
1, test,2, vibration off,50,4,3, 4.jpg, 3.jpg,0.528689445,0.304980312,0.528689445, right,2,4,3, 4.jpg, 3.jpg,2.1222764,1,0.585330427,0.596690297,0.304980312,0.528689445,1
1, practice,3, vibration during outcome,1,1,3, 1.jpg, 3.jpg,0.511076546,0.413504079,0.511076546, right,2,1,3, 1.jpg, 3.jpg,1.3202163,1,0.511076546,0.615232533,0.413504079,0.466504194,1
1, practice,3, vibration during outcome,2,1,4, 1.jpg, 4.jpg,0.517796443,0.47234587,0.517796443, right,2,1,4, 1.jpg, 4.jpg,1.416141,1,0.517796443,0.631199867,0.375335495,0.47234587,1
1, practice,3, vibration during outcome,3,3,2, 3.jpg, 2.jpg,0.374984468,0.626315633,0.626315633, left,1,2,3, 2.jpg, 3.jpg,1.2130012,1,0.498939688,0.626315633,0.374984468,0.491193418,1
1, practice,3, vibration during outcome,4,2,4, 2.jpg, 4.jpg,0.609226527,0.486122834,0.609226527, right,2,2,4, 2.jpg, 4.jpg,0.9356153,1,0.498193315,0.609226527,0.371343772,0.486122834,1
1, practice,3, vibration during outcome,5,4,2, 4.jpg, 2.jpg,0.463675252,0.620106582,0.620106582, left,1,2,4, 2.jpg, 4.jpg,0.6886729,1,0.472267853,0.620106582,0.35386843,0.463675252,0
1, test,3, vibration during outcome,1,4,3, 8.jpg, 7.jpg,0.466504194,0.413504079,0.466504194, right,2,4,3, 8.jpg, 7.jpg,2.5908819,1,0.511076546,0.615232533,0.413504079,0.466504194,0
1, test,3, vibration during outcome,2,4,3, 8.jpg, 7.jpg,0.47234587,0.375335495,0.375335495, left,1,3,4, 7.jpg, 8.jpg,1.0205139,1,0.517796443,0.631199867,0.375335495,0.47234587,1
1, test,3, vibration during outcome,3,2,4, 6.jpg, 8.jpg,0.626315633,0.491193418,0.626315633, right,2,2,4, 6.jpg, 8.jpg,0.9904064,1,0.498939688,0.626315633,0.374984468,0.491193418,1
1, test,3, vibration during outcome,4,2,1, 6.jpg, 5.jpg,0.609226527,0.498193315,0.609226527, right,2,2,1, 6.jpg, 5.jpg,1.1065851,1,0.498193315,0.609226527,0.371343772,0.486122834,1
1, test,3, vibration during outcome,5,1,3, 5.jpg, 7.jpg,0.472267853,0.35386843,0.472267853, right,2,1,3, 5.jpg, 7.jpg,2.4332028,1,0.472267853,0.620106582,0.35386843,0.463675252,1
1, test,3, vibration during outcome,6,3,4, 7.jpg, 8.jpg,0.353156918,0.444784776,0.444784776, left,1,4,3, 8.jpg, 7.jpg,1.1254769,1,0.48900464,0.609411022,0.353156918,0.444784776,0
1, test,3, vibration during outcome,7,4,2, 8.jpg, 6.jpg,0.459669582,0.661106815,0.459669582, right,2,4,2, 8.jpg, 6.jpg,1.0772421,1,0.498922937,0.661106815,0.351148204,0.459669582,0
1, test,3, vibration during outcome,8,3,2, 7.jpg, 6.jpg,0.385479761,0.661043011,0.661043011, left,1,2,3, 6.jpg, 7.jpg,1.0092837,1,0.523305174,0.661043011,0.385479761,0.445975487,0
1, test,3, vibration during outcome,9,3,2, 7.jpg, 6.jpg,0.38403906,0.617130773,0.617130773, left,1,2,3, 6.jpg, 7.jpg,1.1877238,1,0.538202722,0.617130773,0.38403906,0.477824508,1
1, test,3, vibration during outcome,10,2,3, 6.jpg, 7.jpg,0.61305354,0.400369013,0.61305354, right,2,2,3, 6.jpg, 7.jpg,1.4177029,1,0.538742055,0.61305354,0.400369013,0.494179332,0
1, test,3, vibration during outcome,11,1,2, 5.jpg, 6.jpg,0.576408806,0.627053837,0.576408806, right,2,1,2, 5.jpg, 6.jpg,1.2321227,1,0.576408806,0.627053837,0.389573429,0.442060048,1
1, test,3, vibration during outcome,12,4,3, 8.jpg, 7.jpg,0.429884006,0.368726719,0.429884006, right,2,4,3, 8.jpg, 7.jpg,1.3924387,1,0.58170588,0.6084257,0.368726719,0.429884006,1
1, test,3, vibration during outcome,13,1,3, 5.jpg, 7.jpg,0.578706679,0.375355878,0.578706679, right,2,1,3, 5.jpg, 7.jpg,1.3842881,1,0.578706679,0.597368238,0.375355878,0.451621205,1
1, test,3, vibration during outcome,14,3,1, 7.jpg, 5.jpg,0.38842331,0.542007718,0.542007718, left,1,1,3, 5.jpg, 7.jpg,0.9796418,1,0.542007718,0.603047222,0.38842331,0.453322749,1
1, test,3, vibration during outcome,15,3,4, 7.jpg, 8.jpg,0.398928367,0.449059956,0.449059956, left,1,4,3, 8.jpg, 7.jpg,1.0896001,1,0.51169699,0.59667375,0.398928367,0.449059956,1
1, test,3, vibration during outcome,16,4,2, 8.jpg, 6.jpg,0.445080478,0.577589974,0.577589974, left,1,2,4, 6.jpg, 8.jpg,1.0892778,1,0.513158928,0.577589974,0.371810296,0.445080478,0
1, test,3, vibration during outcome,17,4,2, 8.jpg, 6.jpg,0.422775713,0.585694186,0.585694186, left,1,2,4, 6.jpg, 8.jpg,0.8128646,1,0.513426935,0.585694186,0.379887863,0.422775713,1
1, test,3, vibration during outcome,18,4,3, 8.jpg, 7.jpg,0.418810463,0.373664559,0.418810463, right,2,4,3, 8.jpg, 7.jpg,0.9881163,1,0.505704724,0.54789599,0.373664559,0.418810463,1
1, test,3, vibration during outcome,19,4,1, 8.jpg, 5.jpg,0.404711898,0.504573157,0.504573157, left,1,1,4, 5.jpg, 8.jpg,0.9728341,1,0.504573157,0.582335652,0.369915918,0.404711898,0
1, test,3, vibration during outcome,20,1,4, 5.jpg, 8.jpg,0.511492418,0.429775493,0.429775493, left,1,4,1, 8.jpg, 5.jpg,1.031818,1,0.511492418,0.588279021,0.34718102,0.429775493,0
1, test,3, vibration during outcome,21,3,4, 7.jpg, 8.jpg,0.365459609,0.420212923,0.420212923, left,1,4,3, 8.jpg, 7.jpg,1.5533965,1,0.512951285,0.553509108,0.365459609,0.420212923,0
1, test,3, vibration during outcome,22,4,1, 8.jpg, 5.jpg,0.410726764,0.539572991,0.539572991, left,1,1,4, 5.jpg, 8.jpg,0.9004972,1,0.539572991,0.552815737,0.364821817,0.410726764,0
1, test,3, vibration during outcome,23,1,4, 5.jpg, 8.jpg,0.56095771,0.376882621,0.376882621, left,1,4,1, 8.jpg, 5.jpg,1.3332176,1,0.56095771,0.535255398,0.373035803,0.376882621,0
1, test,3, vibration during outcome,24,2,3, 6.jpg, 7.jpg,0.524393705,0.364677663,0.524393705, right,2,2,3, 6.jpg, 7.jpg,0.9089628,1,0.575401102,0.524393705,0.364677663,0.358107826,1
1, test,3, vibration during outcome,25,2,1, 6.jpg, 5.jpg,0.532040408,0.541014126,0.541014126, left,1,1,2, 5.jpg, 6.jpg,1.288971,1,0.541014126,0.532040408,0.39083719,0.373729847,0
1, test,3, vibration during outcome,26,4,2, 8.jpg, 6.jpg,0.398780507,0.511692898,0.511692898, left,1,2,4, 6.jpg, 8.jpg,0.7692436,1,0.536918816,0.511692898,0.371897574,0.398780507,1
1, test,3, vibration during outcome,27,4,1, 8.jpg, 5.jpg,0.405865749,0.541079589,0.405865749, right,2,4,1, 8.jpg, 5.jpg,1.3410436,1,0.541079589,0.54671574,0.389383809,0.405865749,0
1, test,3, vibration during outcome,28,1,4, 5.jpg, 8.jpg,0.559641612,0.403418308,0.559641612, right,2,1,4, 5.jpg, 8.jpg,1.8771867,1,0.559641612,0.570750529,0.408417182,0.403418308,1
1, test,3, vibration during outcome,29,3,1, 7.jpg, 5.jpg,0.383885215,0.566867971,0.566867971, left,1,1,3, 5.jpg, 7.jpg,0.9216001,1,0.566867971,0.54476025,0.383885215,0.398536524,0
1, test,3, vibration during outcome,30,3,2, 7.jpg, 6.jpg,0.406860111,0.559260499,0.559260499, left,1,2,3, 6.jpg, 7.jpg,0.9437618,1,0.562069061,0.559260499,0.406860111,0.407780991,0
1, test,3, vibration during outcome,31,4,1, 8.jpg, 5.jpg,0.40633374,0.557017169,0.40633374, right,2,4,1, 8.jpg, 5.jpg,1.7690555,1,0.557017169,0.570453061,0.389734908,0.40633374,0
1, test,3, vibration during outcome,32,2,3, 6.jpg, 7.jpg,0.562455492,0.364845558,0.364845558, left,1,3,2, 7.jpg, 6.jpg,1.2613464,1,0.587964414,0.562455492,0.364845558,0.430319959,0
1, test,3, vibration during outcome,33,2,3, 6.jpg, 7.jpg,0.583546956,0.38651511,0.583546956, right,2,2,3, 6.jpg, 7.jpg,0.6430338,1,0.569423526,0.583546956,0.38651511,0.469700007,1
1, test,3, vibration during outcome,34,1,4, 5.jpg, 8.jpg,0.56834307,0.45608609,0.56834307, right,2,1,4, 5.jpg, 8.jpg,1.0440367,1,0.56834307,0.565200904,0.411760625,0.45608609,0
1, test,3, vibration during outcome,35,1,3, 5.jpg, 7.jpg,0.599079702,0.404213812,0.599079702, right,2,1,3, 5.jpg, 7.jpg,0.9836608,1,0.599079702,0.567372701,0.404213812,0.497188985,1
1, test,3, vibration during outcome,36,4,1, 8.jpg, 5.jpg,0.476236411,0.614921267,0.614921267, left,1,1,4, 5.jpg, 8.jpg,0.7248753,1,0.614921267,0.558903517,0.380656038,0.476236411,1
1, test,3, vibration during outcome,37,2,3, 6.jpg, 7.jpg,0.545721743,0.352549374,0.545721743, right,2,2,3, 6.jpg, 7.jpg,0.810489,1,0.628075493,0.545721743,0.352549374,0.509842719,1
1, test,3, vibration during outcome,38,4,1, 8.jpg, 5.jpg,0.530542784,0.631242143,0.631242143, left,1,1,4, 5.jpg, 8.jpg,1.1787492,1,0.631242143,0.538071442,0.347063514,0.530542784,1
1, test,3, vibration during outcome,39,1,3, 5.jpg, 7.jpg,0.600609567,0.341152187,0.600609567, right,2,1,3, 5.jpg, 7.jpg,1.0837574,1,0.600609567,0.562917382,0.341152187,0.525341883,1
1, test,3, vibration during outcome,40,2,4, 6.jpg, 8.jpg,0.574174471,0.519319672,0.574174471, right,2,2,4, 6.jpg, 8.jpg,1.2290462,1,0.598478627,0.574174471,0.340254534,0.519319672,1
1, test,3, vibration during outcome,41,3,4, 7.jpg, 8.jpg,0.358175358,0.531828439,0.531828439, left,1,4,3, 8.jpg, 7.jpg,1.0129321,1,0.60144404,0.580661228,0.358175358,0.531828439,0
1, test,3, vibration during outcome,42,2,1, 6.jpg, 5.jpg,0.582970551,0.630195312,0.582970551, right,2,2,1, 6.jpg, 5.jpg,0.9773034,1,0.630195312,0.582970551,0.366861123,0.522351056,1
1, test,3, vibration during outcome,43,2,3, 6.jpg, 7.jpg,0.572586617,0.357029746,0.572586617, right,2,2,3, 6.jpg, 7.jpg,0.8240173,1,0.628568645,0.572586617,0.357029746,0.532129282,0
1, test,3, vibration during outcome,44,3,4, 7.jpg, 8.jpg,0.384631609,0.54344664,0.54344664, left,1,4,3, 8.jpg, 7.jpg,1.2810244,1,0.636994371,0.565568304,0.384631609,0.54344664,0
1, test,3, vibration during outcome,45,3,2, 7.jpg, 6.jpg,0.386636695,0.5781911,0.5781911, left,1,2,3, 6.jpg, 7.jpg,1.2506687,1,0.650015763,0.5781911,0.386636695,0.52618086,1
1, test,3, vibration during outcome,46,2,4, 6.jpg, 8.jpg,0.554193525,0.575008411,0.554193525, right,2,2,4, 6.jpg, 8.jpg,1.0246534,1,0.626001871,0.554193525,0.376640317,0.575008411,0
1, test,3, vibration during outcome,47,4,1, 8.jpg, 5.jpg,0.546233567,0.606772055,0.606772055, left,1,1,4, 5.jpg, 8.jpg,0.9083777,1,0.606772055,0.585886385,0.329837755,0.546233567,1
1, test,3, vibration during outcome,48,3,2, 7.jpg, 6.jpg,0.322472207,0.601875425,0.322472207, right,2,3,2, 7.jpg, 6.jpg,0.7320003,1,0.609756275,0.601875425,0.322472207,0.544792119,0
1, test,3, vibration during outcome,49,3,4, 7.jpg, 8.jpg,0.298351175,0.559135463,0.559135463, left,1,4,3, 8.jpg, 7.jpg,0.8737612,1,0.606158462,0.595767883,0.298351175,0.559135463,0
1, test,3, vibration during outcome,50,1,2, 5.jpg, 6.jpg,0.585330427,0.596690297,0.596690297, left,1,2,1, 6.jpg, 5.jpg,1.0081727,1,0.585330427,0.596690297,0.304980312,0.528689445,0
2, practice,1, vibration during outcome,1,1,2, 9.jpg, 10.jpg,0.167787674,0.332201416,0.167787674, right,2,1,2, 9.jpg, 10.jpg,1.2366621,2,0.167787674,0.332201416,0.584847675,0.302670058,0
2, practice,1, vibration during outcome,2,2,4, 10.jpg, 12.jpg,0.355471562,0.290755999,0.290755999, left,1,4,2, 12.jpg, 10.jpg,0.8235472,2,0.176264347,0.355471562,0.582595424,0.290755999,0
2, practice,1, vibration during outcome,3,1,4, 9.jpg, 12.jpg,0.206677553,0.275426328,0.206677553, right,2,1,4, 9.jpg, 12.jpg,0.8524025,2,0.206677553,0.3490424,0.578794293,0.275426328,0
2, practice,1, vibration during outcome,4,1,3, 9.jpg, 11.jpg,0.216551625,0.569745321,0.569745321, left,1,3,1, 11.jpg, 9.jpg,1.0132813,2,0.216551625,0.358181966,0.569745321,0.268568422,1
2, practice,1, vibration during outcome,5,3,4, 11.jpg, 12.jpg,0.582527891,0.302042001,0.582527891, right,2,3,4, 11.jpg, 12.jpg,0.5986527,2,0.21991786,0.364707579,0.582527891,0.302042001,0
2, test,1, vibration during outcome,1,1,3, 1.jpg, 3.jpg,0.167787674,0.584847675,0.167787674, right,2,1,3, 1.jpg, 3.jpg,0.6485277,2,0.167787674,0.332201416,0.584847675,0.302670058,0
2, test,1, vibration during outcome,2,2,3, 2.jpg, 3.jpg,0.355471562,0.582595424,0.582595424, left,1,3,2, 3.jpg, 2.jpg,0.6017306,2,0.176264347,0.355471562,0.582595424,0.290755999,1
2, test,1, vibration during outcome,3,2,1, 2.jpg, 1.jpg,0.3490424,0.206677553,0.3490424, right,2,2,1, 2.jpg, 1.jpg,0.8810891,2,0.206677553,0.3490424,0.578794293,0.275426328,0
2, test,1, vibration during outcome,4,4,2, 4.jpg, 2.jpg,0.268568422,0.358181966,0.358181966, left,1,2,4, 2.jpg, 4.jpg,0.9167571,2,0.216551625,0.358181966,0.569745321,0.268568422,1
2, test,1, vibration during outcome,5,4,3, 4.jpg, 3.jpg,0.302042001,0.582527891,0.582527891, left,1,3,4, 3.jpg, 4.jpg,0.900765,2,0.21991786,0.364707579,0.582527891,0.302042001,1
2, test,1, vibration during outcome,6,4,3, 4.jpg, 3.jpg,0.336540119,0.587455063,0.587455063, left,1,3,4, 3.jpg, 4.jpg,0.5313943,2,0.209090036,0.3895513,0.587455063,0.336540119,0
2, test,1, vibration during outcome,7,2,4, 2.jpg, 4.jpg,0.39060737,0.363378709,0.363378709, left,1,4,2, 4.jpg, 2.jpg,0.5156041,2,0.215508938,0.39060737,0.582464681,0.363378709,0
2, test,1, vibration during outcome,8,2,1, 2.jpg, 1.jpg,0.430440014,0.219868403,0.430440014, right,2,2,1, 2.jpg, 1.jpg,0.4425252,2,0.219868403,0.430440014,0.545053358,0.369794555,0
2, test,1, vibration during outcome,9,1,4, 1.jpg, 4.jpg,0.223820368,0.365747455,0.223820368, right,2,1,4, 1.jpg, 4.jpg,0.7554204,2,0.223820368,0.4539861,0.530883085,0.365747455,0
2, test,1, vibration during outcome,10,2,4, 2.jpg, 4.jpg,0.485995524,0.36426522,0.36426522, left,1,4,2, 4.jpg, 2.jpg,0.5743547,2,0.25320591,0.485995524,0.507816291,0.36426522,0
2, test,1, vibration during outcome,11,4,3, 4.jpg, 3.jpg,0.378430477,0.494989907,0.494989907, left,1,3,4, 3.jpg, 4.jpg,0.8338847,2,0.272116099,0.489357893,0.494989907,0.378430477,1
2, test,1, vibration during outcome,12,4,3, 4.jpg, 3.jpg,0.406276663,0.446302549,0.446302549, left,1,3,4, 3.jpg, 4.jpg,0.479909,2,0.234286576,0.484630844,0.446302549,0.406276663,0
2, test,1, vibration during outcome,13,2,1, 2.jpg, 1.jpg,0.493007884,0.209829698,0.493007884, right,2,2,1, 2.jpg, 1.jpg,1.0554761,2,0.209829698,0.493007884,0.441292304,0.408056555,0
2, test,1, vibration during outcome,14,2,3, 2.jpg, 3.jpg,0.496165246,0.424090899,0.424090899, left,1,3,2, 3.jpg, 2.jpg,0.8479142,2,0.194746258,0.496165246,0.424090899,0.411853134,1
2, test,1, vibration during outcome,15,4,3, 4.jpg, 3.jpg,0.425420016,0.410741903,0.425420016, right,2,4,3, 4.jpg, 3.jpg,0.6530786,2,0.254919143,0.498060855,0.410741903,0.425420016,1
2, test,1, vibration during outcome,16,1,2, 1.jpg, 2.jpg,0.268446939,0.473753497,0.473753497, left,1,2,1, 2.jpg, 1.jpg,0.8949929,2,0.268446939,0.473753497,0.384469806,0.434571537,0
2, test,1, vibration during outcome,17,3,2, 3.jpg, 2.jpg,0.397409959,0.427927548,0.427927548, left,1,2,3, 2.jpg, 3.jpg,1.1930626,2,0.260713561,0.427927548,0.397409959,0.467037886,1
2, test,1, vibration during outcome,18,2,3, 2.jpg, 3.jpg,0.42862063,0.380302803,0.42862063, right,2,2,3, 2.jpg, 3.jpg,0.5520802,2,0.273570125,0.42862063,0.380302803,0.458160423,0
2, test,1, vibration during outcome,19,1,4, 1.jpg, 4.jpg,0.269452755,0.413401572,0.269452755, right,2,1,4, 1.jpg, 4.jpg,0.947269,2,0.269452755,0.435371131,0.39026973,0.413401572,0
2, test,1, vibration during outcome,20,3,1, 3.jpg, 1.jpg,0.408454439,0.268741649,0.408454439, right,2,3,1, 3.jpg, 1.jpg,1.2635287,2,0.268741649,0.425551488,0.408454439,0.410963982,1
2, test,1, vibration during outcome,21,3,4, 3.jpg, 4.jpg,0.404768464,0.423231262,0.404768464, right,2,3,4, 3.jpg, 4.jpg,0.6233008,2,0.289598518,0.44190032,0.404768464,0.423231262,0
2, test,1, vibration during outcome,22,2,3, 2.jpg, 3.jpg,0.419525056,0.422610309,0.422610309, left,1,3,2, 3.jpg, 2.jpg,1.3073283,2,0.299460569,0.419525056,0.422610309,0.389718337,0
2, test,1, vibration during outcome,23,3,2, 3.jpg, 2.jpg,0.408863932,0.397611772,0.397611772, left,1,2,3, 2.jpg, 3.jpg,1.0029877,2,0.275422902,0.397611772,0.408863932,0.39059245,0
2, test,1, vibration during outcome,24,4,3, 4.jpg, 3.jpg,0.398445672,0.405854252,0.398445672, right,2,4,3, 4.jpg, 3.jpg,0.9651353,2,0.266650787,0.379139537,0.405854252,0.398445672,0
2, test,1, vibration during outcome,25,1,4, 1.jpg, 4.jpg,0.254259812,0.3844496,0.254259812, right,2,1,4, 1.jpg, 4.jpg,0.9836112,2,0.254259812,0.383103254,0.425425396,0.3844496,0
2, test,1, vibration during outcome,26,1,2, 1.jpg, 2.jpg,0.251503025,0.426705428,0.251503025, right,2,1,2, 1.jpg, 2.jpg,1.3277556,2,0.251503025,0.426705428,0.44409494,0.389570929,0
2, test,1, vibration during outcome,27,3,4, 3.jpg, 4.jpg,0.476699219,0.351861927,0.351861927, left,1,4,3, 4.jpg, 3.jpg,0.9987265,2,0.260664603,0.434578853,0.476699219,0.351861927,0
2, test,1, vibration during outcome,28,1,2, 1.jpg, 2.jpg,0.254900351,0.456535155,0.456535155, left,1,2,1, 2.jpg, 1.jpg,1.084022,2,0.254900351,0.456535155,0.471375184,0.358204472,0
2, test,1, vibration during outcome,29,1,3, 1.jpg, 3.jpg,0.270226286,0.45401501,0.270226286, right,2,1,3, 1.jpg, 3.jpg,0.8990459,2,0.270226286,0.431125609,0.45401501,0.360838495,0
2, test,1, vibration during outcome,30,1,2, 1.jpg, 2.jpg,0.231605059,0.434793002,0.231605059, right,2,1,2, 1.jpg, 2.jpg,1.5233671,2,0.231605059,0.434793002,0.441888062,0.36725969,0
2, test,1, vibration during outcome,31,2,1, 2.jpg, 1.jpg,0.473135831,0.233739069,0.473135831, right,2,2,1, 2.jpg, 1.jpg,0.6216221,2,0.233739069,0.473135831,0.456731037,0.401609609,0
2, test,1, vibration during outcome,32,4,1, 4.jpg, 1.jpg,0.393803515,0.24432205,0.24432205, left,1,1,4, 1.jpg, 4.jpg,0.9514489,2,0.24432205,0.452508743,0.406064085,0.393803515,0
2, test,1, vibration during outcome,33,4,1, 4.jpg, 1.jpg,0.402704902,0.193554899,0.402704902, right,2,4,1, 4.jpg, 1.jpg,0.6636904,2,0.193554899,0.458621481,0.401876712,0.402704902,0
2, test,1, vibration during outcome,34,4,3, 4.jpg, 3.jpg,0.416668377,0.409321444,0.416668377, right,2,4,3, 4.jpg, 3.jpg,1.0396995,2,0.204964705,0.43001655,0.409321444,0.416668377,0
2, test,1, vibration during outcome,35,3,2, 3.jpg, 2.jpg,0.424862287,0.429045935,0.429045935, left,1,2,3, 2.jpg, 3.jpg,0.7155979,2,0.22048214,0.429045935,0.424862287,0.419699964,1
2, test,1, vibration during outcome,36,2,3, 2.jpg, 3.jpg,0.447650766,0.423948221,0.447650766, right,2,2,3, 2.jpg, 3.jpg,0.5103251,2,0.211101934,0.447650766,0.423948221,0.428911523,1
2, test,1, vibration during outcome,37,2,1, 2.jpg, 1.jpg,0.456165741,0.219326053,0.456165741, right,2,2,1, 2.jpg, 1.jpg,0.4866486,2,0.219326053,0.456165741,0.43257228,0.39910528,0
2, test,1, vibration during outcome,38,3,2, 3.jpg, 2.jpg,0.4363313,0.433155402,0.433155402, left,1,2,3, 2.jpg, 3.jpg,0.934753,2,0.221341547,0.433155402,0.4363313,0.390289699,1
2, test,1, vibration during outcome,39,2,3, 2.jpg, 3.jpg,0.447660961,0.408906602,0.447660961, right,2,2,3, 2.jpg, 3.jpg,0.4868999,2,0.214118114,0.447660961,0.408906602,0.411267062,0
2, test,1, vibration during outcome,40,1,2, 1.jpg, 2.jpg,0.217505069,0.447456341,0.217505069, right,2,1,2, 1.jpg, 2.jpg,0.8086506,2,0.217505069,0.447456341,0.40122215,0.401024283,0
2, test,1, vibration during outcome,41,3,1, 3.jpg, 1.jpg,0.382054645,0.249081937,0.382054645, right,2,3,1, 3.jpg, 1.jpg,0.8414642,2,0.249081937,0.458162882,0.382054645,0.370374616,1
2, test,1, vibration during outcome,42,2,3, 2.jpg, 3.jpg,0.480978505,0.383924023,0.383924023, left,1,3,2, 3.jpg, 2.jpg,0.4857669,2,0.255981224,0.480978505,0.383924023,0.368787043,0
2, test,1, vibration during outcome,43,4,2, 4.jpg, 2.jpg,0.38383929,0.511556199,0.511556199, left,1,2,4, 2.jpg, 4.jpg,0.601626,2,0.288213763,0.511556199,0.401205729,0.38383929,1
2, test,1, vibration during outcome,44,2,1, 2.jpg, 1.jpg,0.530811847,0.294374293,0.530811847, right,2,2,1, 2.jpg, 1.jpg,0.8729058,2,0.294374293,0.530811847,0.350203513,0.362927966,0
2, test,1, vibration during outcome,45,1,2, 1.jpg, 2.jpg,0.308994906,0.512913286,0.308994906, right,2,1,2, 1.jpg, 2.jpg,0.4271231,2,0.308994906,0.512913286,0.336134109,0.367033206,0
2, test,1, vibration during outcome,46,4,2, 4.jpg, 2.jpg,0.368488345,0.533187647,0.533187647, left,1,2,4, 2.jpg, 4.jpg,0.4780874,2,0.289973458,0.533187647,0.325220477,0.368488345,0
2, test,1, vibration during outcome,47,3,1, 3.jpg, 1.jpg,0.357892701,0.29306391,0.357892701, right,2,3,1, 3.jpg, 1.jpg,1.0022305,2,0.29306391,0.537872242,0.357892701,0.34679011,1
2, test,1, vibration during outcome,48,3,2, 3.jpg, 2.jpg,0.408168742,0.523160461,0.408168742, right,2,3,2, 3.jpg, 2.jpg,1.0843334,2,0.292135198,0.523160461,0.408168742,0.356952705,1
2, test,1, vibration during outcome,49,3,1, 3.jpg, 1.jpg,0.394241012,0.293886334,0.293886334, left,1,1,3, 1.jpg, 3.jpg,1.2192515,2,0.293886334,0.527646571,0.394241012,0.356189797,0
2, test,1, vibration during outcome,50,3,2, 3.jpg, 2.jpg,0.386662209,0.548355336,0.386662209, right,2,3,2, 3.jpg, 2.jpg,0.9039246,2,0.304272396,0.548355336,0.386662209,0.348042517,1
2, practice,2, vibration off,1,3,4, 7.jpg, 8.jpg,0.584847675,0.302670058,0.584847675, right,2,3,4, 7.jpg, 8.jpg,0.6477031,2,0.167787674,0.332201416,0.584847675,0.302670058,0
2, practice,2, vibration off,2,2,4, 6.jpg, 8.jpg,0.355471562,0.290755999,0.290755999, left,1,4,2, 8.jpg, 6.jpg,0.4944336,2,0.176264347,0.355471562,0.582595424,0.290755999,1
2, practice,2, vibration off,3,1,2, 5.jpg, 6.jpg,0.206677553,0.3490424,0.206677553, right,2,1,2, 5.jpg, 6.jpg,0.6078421,2,0.206677553,0.3490424,0.578794293,0.275426328,1
2, practice,2, vibration off,4,3,2, 7.jpg, 6.jpg,0.569745321,0.358181966,0.569745321, right,2,3,2, 7.jpg, 6.jpg,0.8923251,2,0.216551625,0.358181966,0.569745321,0.268568422,0
2, practice,2, vibration off,5,1,4, 5.jpg, 8.jpg,0.21991786,0.302042001,0.302042001, left,1,4,1, 8.jpg, 5.jpg,0.9458319,2,0.21991786,0.364707579,0.582527891,0.302042001,1
2, test,2, vibration off,1,3,4, 11.jpg, 12.jpg,0.584847675,0.302670058,0.584847675, right,2,3,4, 11.jpg, 12.jpg,0.5694346,2,0.167787674,0.332201416,0.584847675,0.302670058,0
2, test,2, vibration off,2,2,3, 10.jpg, 11.jpg,0.355471562,0.582595424,0.582595424, left,1,3,2, 11.jpg, 10.jpg,0.4648368,2,0.176264347,0.355471562,0.582595424,0.290755999,0
2, test,2, vibration off,3,1,4, 9.jpg, 12.jpg,0.206677553,0.275426328,0.206677553, right,2,1,4, 9.jpg, 12.jpg,0.5532526,2,0.206677553,0.3490424,0.578794293,0.275426328,0
2, test,2, vibration off,4,2,3, 10.jpg, 11.jpg,0.358181966,0.569745321,0.358181966, right,2,2,3, 10.jpg, 11.jpg,0.9952887,2,0.216551625,0.358181966,0.569745321,0.268568422,0
2, test,2, vibration off,5,1,4, 9.jpg, 12.jpg,0.21991786,0.302042001,0.302042001, left,1,4,1, 12.jpg, 9.jpg,1.0812594,2,0.21991786,0.364707579,0.582527891,0.302042001,0
2, test,2, vibration off,6,3,1, 11.jpg, 9.jpg,0.587455063,0.209090036,0.209090036, left,1,1,3, 9.jpg, 11.jpg,0.6439705,2,0.209090036,0.3895513,0.587455063,0.336540119,0
2, test,2, vibration off,7,4,1, 12.jpg, 9.jpg,0.363378709,0.215508938,0.363378709, right,2,4,1, 12.jpg, 9.jpg,0.7575416,2,0.215508938,0.39060737,0.582464681,0.363378709,0
2, test,2, vibration off,8,1,4, 9.jpg, 12.jpg,0.219868403,0.369794555,0.219868403, right,2,1,4, 9.jpg, 12.jpg,0.5489162,2,0.219868403,0.430440014,0.545053358,0.369794555,0
2, test,2, vibration off,9,4,3, 12.jpg, 11.jpg,0.365747455,0.530883085,0.530883085, left,1,3,4, 11.jpg, 12.jpg,1.4833595,2,0.223820368,0.4539861,0.530883085,0.365747455,1
2, test,2, vibration off,10,1,4, 9.jpg, 12.jpg,0.25320591,0.36426522,0.25320591, right,2,1,4, 9.jpg, 12.jpg,1.250405,2,0.25320591,0.485995524,0.507816291,0.36426522,0
2, test,2, vibration off,11,1,2, 9.jpg, 10.jpg,0.272116099,0.489357893,0.489357893, left,1,2,1, 10.jpg, 9.jpg,0.9450365,2,0.272116099,0.489357893,0.494989907,0.378430477,1
2, test,2, vibration off,12,4,1, 12.jpg, 9.jpg,0.406276663,0.234286576,0.406276663, right,2,4,1, 12.jpg, 9.jpg,1.0080089,2,0.234286576,0.484630844,0.446302549,0.406276663,0
2, test,2, vibration off,13,1,4, 9.jpg, 12.jpg,0.209829698,0.408056555,0.408056555, left,1,4,1, 12.jpg, 9.jpg,1.045493,2,0.209829698,0.493007884,0.441292304,0.408056555,0
2, test,2, vibration off,14,3,4, 11.jpg, 12.jpg,0.424090899,0.411853134,0.424090899, right,2,3,4, 11.jpg, 12.jpg,0.8501918,2,0.194746258,0.496165246,0.424090899,0.411853134,0
2, test,2, vibration off,15,3,1, 11.jpg, 9.jpg,0.410741903,0.254919143,0.254919143, left,1,1,3, 9.jpg, 11.jpg,0.9213673,2,0.254919143,0.498060855,0.410741903,0.425420016,0
2, test,2, vibration off,16,3,2, 11.jpg, 10.jpg,0.384469806,0.473753497,0.384469806, right,2,3,2, 11.jpg, 10.jpg,0.7251342,2,0.268446939,0.473753497,0.384469806,0.434571537,1
2, test,2, vibration off,17,1,3, 9.jpg, 11.jpg,0.260713561,0.397409959,0.397409959, left,1,3,1, 11.jpg, 9.jpg,0.9134184,2,0.260713561,0.427927548,0.397409959,0.467037886,1
2, test,2, vibration off,18,4,1, 12.jpg, 9.jpg,0.458160423,0.273570125,0.273570125, left,1,1,4, 9.jpg, 12.jpg,1.5595176,2,0.273570125,0.42862063,0.380302803,0.458160423,0
2, test,2, vibration off,19,4,3, 12.jpg, 11.jpg,0.413401572,0.39026973,0.413401572, right,2,4,3, 12.jpg, 11.jpg,0.5820062,2,0.269452755,0.435371131,0.39026973,0.413401572,0
2, test,2, vibration off,20,1,3, 9.jpg, 11.jpg,0.268741649,0.408454439,0.408454439, left,1,3,1, 11.jpg, 9.jpg,0.4138072,2,0.268741649,0.425551488,0.408454439,0.410963982,0
2, test,2, vibration off,21,4,3, 12.jpg, 11.jpg,0.423231262,0.404768464,0.404768464, left,1,3,4, 11.jpg, 12.jpg,0.7527879,2,0.289598518,0.44190032,0.404768464,0.423231262,0
2, test,2, vibration off,22,2,3, 10.jpg, 11.jpg,0.419525056,0.422610309,0.422610309, left,1,3,2, 11.jpg, 10.jpg,0.8534206,2,0.299460569,0.419525056,0.422610309,0.389718337,1
2, test,2, vibration off,23,1,2, 9.jpg, 10.jpg,0.275422902,0.397611772,0.397611772, left,1,2,1, 10.jpg, 9.jpg,1.3213915,2,0.275422902,0.397611772,0.408863932,0.39059245,0
2, test,2, vibration off,24,1,2, 9.jpg, 10.jpg,0.266650787,0.379139537,0.266650787, right,2,1,2, 9.jpg, 10.jpg,0.7223866,2,0.266650787,0.379139537,0.405854252,0.398445672,1
2, test,2, vibration off,25,2,1, 10.jpg, 9.jpg,0.383103254,0.254259812,0.254259812, left,1,1,2, 9.jpg, 10.jpg,1.6214528,2,0.254259812,0.383103254,0.425425396,0.3844496,0
2, test,2, vibration off,26,4,3, 12.jpg, 11.jpg,0.389570929,0.44409494,0.44409494, left,1,3,4, 11.jpg, 12.jpg,0.8874147,2,0.251503025,0.426705428,0.44409494,0.389570929,0
2, test,2, vibration off,27,4,1, 12.jpg, 9.jpg,0.351861927,0.260664603,0.351861927, right,2,4,1, 12.jpg, 9.jpg,0.4935048,2,0.260664603,0.434578853,0.476699219,0.351861927,0
2, test,2, vibration off,28,4,1, 12.jpg, 9.jpg,0.358204472,0.254900351,0.254900351, left,1,1,4, 9.jpg, 12.jpg,0.4018493,2,0.254900351,0.456535155,0.471375184,0.358204472,0
2, test,2, vibration off,29,1,2, 9.jpg, 10.jpg,0.270226286,0.431125609,0.431125609, left,1,2,1, 10.jpg, 9.jpg,1.5007316,2,0.270226286,0.431125609,0.45401501,0.360838495,0
2, test,2, vibration off,30,1,4, 9.jpg, 12.jpg,0.231605059,0.36725969,0.231605059, right,2,1,4, 9.jpg, 12.jpg,0.3810239,2,0.231605059,0.434793002,0.441888062,0.36725969,0
2, test,2, vibration off,31,3,1, 11.jpg, 9.jpg,0.456731037,0.233739069,0.456731037, right,2,3,1, 11.jpg, 9.jpg,0.8302133,2,0.233739069,0.473135831,0.456731037,0.401609609,0
2, test,2, vibration off,32,1,2, 9.jpg, 10.jpg,0.24432205,0.452508743,0.24432205, right,2,1,2, 9.jpg, 10.jpg,0.9400561,2,0.24432205,0.452508743,0.406064085,0.393803515,0
2, test,2, vibration off,33,3,2, 11.jpg, 10.jpg,0.401876712,0.458621481,0.458621481, left,1,2,3, 10.jpg, 11.jpg,0.588421,2,0.193554899,0.458621481,0.401876712,0.402704902,1
2, test,2, vibration off,34,3,4, 11.jpg, 12.jpg,0.409321444,0.416668377,0.416668377, left,1,4,3, 12.jpg, 11.jpg,1.039837,2,0.204964705,0.43001655,0.409321444,0.416668377,0
2, test,2, vibration off,35,4,3, 12.jpg, 11.jpg,0.419699964,0.424862287,0.424862287, left,1,3,4, 11.jpg, 12.jpg,0.9671095,2,0.22048214,0.429045935,0.424862287,0.419699964,1
2, test,2, vibration off,36,3,4, 11.jpg, 12.jpg,0.423948221,0.428911523,0.423948221, right,2,3,4, 11.jpg, 12.jpg,0.4248281,2,0.211101934,0.447650766,0.423948221,0.428911523,1
2, test,2, vibration off,37,1,4, 9.jpg, 12.jpg,0.219326053,0.39910528,0.219326053, right,2,1,4, 9.jpg, 12.jpg,1.0650335,2,0.219326053,0.456165741,0.43257228,0.39910528,0
2, test,2, vibration off,38,1,3, 9.jpg, 11.jpg,0.221341547,0.4363313,0.4363313, left,1,3,1, 11.jpg, 9.jpg,0.7208905,2,0.221341547,0.433155402,0.4363313,0.390289699,0
2, test,2, vibration off,39,1,2, 9.jpg, 10.jpg,0.214118114,0.447660961,0.214118114, right,2,1,2, 9.jpg, 10.jpg,0.5982644,2,0.214118114,0.447660961,0.408906602,0.411267062,0
2, test,2, vibration off,40,4,3, 12.jpg, 11.jpg,0.401024283,0.40122215,0.40122215, left,1,3,4, 11.jpg, 12.jpg,0.5010543,2,0.217505069,0.447456341,0.40122215,0.401024283,0
2, test,2, vibration off,41,3,1, 11.jpg, 9.jpg,0.382054645,0.249081937,0.382054645, right,2,3,1, 11.jpg, 9.jpg,0.685267,2,0.249081937,0.458162882,0.382054645,0.370374616,0
2, test,2, vibration off,42,1,3, 9.jpg, 11.jpg,0.255981224,0.383924023,0.255981224, right,2,1,3, 9.jpg, 11.jpg,0.5771225,2,0.255981224,0.480978505,0.383924023,0.368787043,0
2, test,2, vibration off,43,1,4, 9.jpg, 12.jpg,0.288213763,0.38383929,0.288213763, right,2,1,4, 9.jpg, 12.jpg,0.9325265,2,0.288213763,0.511556199,0.401205729,0.38383929,0
2, test,2, vibration off,44,3,4, 11.jpg, 12.jpg,0.350203513,0.362927966,0.362927966, left,1,4,3, 12.jpg, 11.jpg,0.4523049,2,0.294374293,0.530811847,0.350203513,0.362927966,0
2, test,2, vibration off,45,4,2, 12.jpg, 10.jpg,0.367033206,0.512913286,0.512913286, left,1,2,4, 10.jpg, 12.jpg,1.1043297,2,0.308994906,0.512913286,0.336134109,0.367033206,1
2, test,2, vibration off,46,2,3, 10.jpg, 11.jpg,0.533187647,0.325220477,0.533187647, right,2,2,3, 10.jpg, 11.jpg,0.850833,2,0.289973458,0.533187647,0.325220477,0.368488345,1
2, test,2, vibration off,47,4,1, 12.jpg, 9.jpg,0.34679011,0.29306391,0.29306391, left,1,1,4, 9.jpg, 12.jpg,0.9466281,2,0.29306391,0.537872242,0.357892701,0.34679011,0
2, test,2, vibration off,48,3,2, 11.jpg, 10.jpg,0.408168742,0.523160461,0.523160461, left,1,2,3, 10.jpg, 11.jpg,1.0657361,2,0.292135198,0.523160461,0.408168742,0.356952705,1
2, test,2, vibration off,49,2,4, 10.jpg, 12.jpg,0.527646571,0.356189797,0.527646571, right,2,2,4, 10.jpg, 12.jpg,0.695628,2,0.293886334,0.527646571,0.394241012,0.356189797,1
2, test,2, vibration off,50,3,1, 11.jpg, 9.jpg,0.386662209,0.304272396,0.386662209, right,2,3,1, 11.jpg, 9.jpg,1.1463995,2,0.304272396,0.548355336,0.386662209,0.348042517,1
2, practice,3, vibration during choice,1,3,1, 7.jpg, 5.jpg,0.584847675,0.167787674,0.167787674, left,1,1,3, 5.jpg, 7.jpg,1.0632911,2,0.167787674,0.332201416,0.584847675,0.302670058,1
2, practice,3, vibration during choice,2,3,2, 7.jpg, 6.jpg,0.582595424,0.355471562,0.582595424, right,2,3,2, 7.jpg, 6.jpg,0.3770231,2,0.176264347,0.355471562,0.582595424,0.290755999,1
2, practice,3, vibration during choice,3,4,1, 8.jpg, 5.jpg,0.275426328,0.206677553,0.275426328, right,2,4,1, 8.jpg, 5.jpg,0.5118326,2,0.206677553,0.3490424,0.578794293,0.275426328,0
2, practice,3, vibration during choice,4,4,3, 8.jpg, 7.jpg,0.268568422,0.569745321,0.569745321, left,1,3,4, 7.jpg, 8.jpg,0.3142379,2,0.216551625,0.358181966,0.569745321,0.268568422,1
2, practice,3, vibration during choice,5,4,2, 8.jpg, 6.jpg,0.302042001,0.364707579,0.364707579, left,1,2,4, 6.jpg, 8.jpg,0.8084382,2,0.21991786,0.364707579,0.582527891,0.302042001,1
2, test,3, vibration during choice,1,4,3, 8.jpg, 7.jpg,0.302670058,0.584847675,0.584847675, left,1,3,4, 7.jpg, 8.jpg,0.6137512,2,0.167787674,0.332201416,0.584847675,0.302670058,0
2, test,3, vibration during choice,2,4,2, 8.jpg, 6.jpg,0.290755999,0.355471562,0.290755999, right,2,4,2, 8.jpg, 6.jpg,0.5940178,2,0.176264347,0.355471562,0.582595424,0.290755999,1
2, test,3, vibration during choice,3,4,2, 8.jpg, 6.jpg,0.275426328,0.3490424,0.275426328, right,2,4,2, 8.jpg, 6.jpg,0.8404347,2,0.206677553,0.3490424,0.578794293,0.275426328,0
2, test,3, vibration during choice,4,2,4, 6.jpg, 8.jpg,0.358181966,0.268568422,0.358181966, right,2,2,4, 6.jpg, 8.jpg,0.5394646,2,0.216551625,0.358181966,0.569745321,0.268568422,0
2, test,3, vibration during choice,5,2,3, 6.jpg, 7.jpg,0.364707579,0.582527891,0.582527891, left,1,3,2, 7.jpg, 6.jpg,0.8464899,2,0.21991786,0.364707579,0.582527891,0.302042001,0
2, test,3, vibration during choice,6,4,2, 8.jpg, 6.jpg,0.336540119,0.3895513,0.3895513, left,1,2,4, 6.jpg, 8.jpg,0.7871555,2,0.209090036,0.3895513,0.587455063,0.336540119,1
2, test,3, vibration during choice,7,2,1, 6.jpg, 5.jpg,0.39060737,0.215508938,0.39060737, right,2,2,1, 6.jpg, 5.jpg,1.0604348,2,0.215508938,0.39060737,0.582464681,0.363378709,0
2, test,3, vibration during choice,8,4,2, 8.jpg, 6.jpg,0.369794555,0.430440014,0.430440014, left,1,2,4, 6.jpg, 8.jpg,1.2025741,2,0.219868403,0.430440014,0.545053358,0.369794555,0
2, test,3, vibration during choice,9,3,1, 7.jpg, 5.jpg,0.530883085,0.223820368,0.530883085, right,2,3,1, 7.jpg, 5.jpg,1.079157,2,0.223820368,0.4539861,0.530883085,0.365747455,1
2, test,3, vibration during choice,10,1,4, 5.jpg, 8.jpg,0.25320591,0.36426522,0.25320591, right,2,1,4, 5.jpg, 8.jpg,1.0117186,2,0.25320591,0.485995524,0.507816291,0.36426522,0
2, test,3, vibration during choice,11,2,1, 6.jpg, 5.jpg,0.489357893,0.272116099,0.489357893, right,2,2,1, 6.jpg, 5.jpg,0.6522634,2,0.272116099,0.489357893,0.494989907,0.378430477,1
2, test,3, vibration during choice,12,3,1, 7.jpg, 5.jpg,0.446302549,0.234286576,0.234286576, left,1,1,3, 5.jpg, 7.jpg,0.8770577,2,0.234286576,0.484630844,0.446302549,0.406276663,0
2, test,3, vibration during choice,13,4,2, 8.jpg, 6.jpg,0.408056555,0.493007884,0.408056555, right,2,4,2, 8.jpg, 6.jpg,0.995833,2,0.209829698,0.493007884,0.441292304,0.408056555,0
2, test,3, vibration during choice,14,2,3, 6.jpg, 7.jpg,0.496165246,0.424090899,0.496165246, right,2,2,3, 6.jpg, 7.jpg,0.6292816,2,0.194746258,0.496165246,0.424090899,0.411853134,0
2, test,3, vibration during choice,15,2,1, 6.jpg, 5.jpg,0.498060855,0.254919143,0.254919143, left,1,1,2, 5.jpg, 6.jpg,1.3329487,2,0.254919143,0.498060855,0.410741903,0.425420016,0
2, test,3, vibration during choice,16,1,2, 5.jpg, 6.jpg,0.268446939,0.473753497,0.473753497, left,1,2,1, 6.jpg, 5.jpg,0.5330558,2,0.268446939,0.473753497,0.384469806,0.434571537,1
2, test,3, vibration during choice,17,1,4, 5.jpg, 8.jpg,0.260713561,0.467037886,0.467037886, left,1,4,1, 8.jpg, 5.jpg,1.009189,2,0.260713561,0.427927548,0.397409959,0.467037886,0
2, test,3, vibration during choice,18,4,2, 8.jpg, 6.jpg,0.458160423,0.42862063,0.458160423, right,2,4,2, 8.jpg, 6.jpg,0.6635966,2,0.273570125,0.42862063,0.380302803,0.458160423,0
2, test,3, vibration during choice,19,1,2, 5.jpg, 6.jpg,0.269452755,0.435371131,0.435371131, left,1,2,1, 6.jpg, 5.jpg,0.3558732,2,0.269452755,0.435371131,0.39026973,0.413401572,0
2, test,3, vibration during choice,20,3,4, 7.jpg, 8.jpg,0.408454439,0.410963982,0.408454439, right,2,3,4, 7.jpg, 8.jpg,0.6200141,2,0.268741649,0.425551488,0.408454439,0.410963982,0
2, test,3, vibration during choice,21,3,1, 7.jpg, 5.jpg,0.404768464,0.289598518,0.404768464, right,2,3,1, 7.jpg, 5.jpg,0.8595054,2,0.289598518,0.44190032,0.404768464,0.423231262,0
2, test,3, vibration during choice,22,1,4, 5.jpg, 8.jpg,0.299460569,0.389718337,0.389718337, left,1,4,1, 8.jpg, 5.jpg,0.7214099,2,0.299460569,0.419525056,0.422610309,0.389718337,0
2, test,3, vibration during choice,23,2,4, 6.jpg, 8.jpg,0.397611772,0.39059245,0.397611772, right,2,2,4, 6.jpg, 8.jpg,0.6135996,2,0.275422902,0.397611772,0.408863932,0.39059245,0
2, test,3, vibration during choice,24,1,2, 5.jpg, 6.jpg,0.266650787,0.379139537,0.266650787, right,2,1,2, 5.jpg, 6.jpg,1.1195202,2,0.266650787,0.379139537,0.405854252,0.398445672,1
2, test,3, vibration during choice,25,1,2, 5.jpg, 6.jpg,0.254259812,0.383103254,0.254259812, right,2,1,2, 5.jpg, 6.jpg,0.5926526,2,0.254259812,0.383103254,0.425425396,0.3844496,0
2, test,3, vibration during choice,26,2,1, 6.jpg, 5.jpg,0.426705428,0.251503025,0.426705428, right,2,2,1, 6.jpg, 5.jpg,0.9598605,2,0.251503025,0.426705428,0.44409494,0.389570929,0
2, test,3, vibration during choice,27,2,4, 6.jpg, 8.jpg,0.434578853,0.351861927,0.351861927, left,1,4,2, 8.jpg, 6.jpg,1.1998473,2,0.260664603,0.434578853,0.476699219,0.351861927,0
2, test,3, vibration during choice,28,3,4, 7.jpg, 8.jpg,0.471375184,0.358204472,0.471375184, right,2,3,4, 7.jpg, 8.jpg,1.1452158,2,0.254900351,0.456535155,0.471375184,0.358204472,1
2, test,3, vibration during choice,29,3,1, 7.jpg, 5.jpg,0.45401501,0.270226286,0.45401501, right,2,3,1, 7.jpg, 5.jpg,0.9975557,2,0.270226286,0.431125609,0.45401501,0.360838495,0
2, test,3, vibration during choice,30,1,4, 5.jpg, 8.jpg,0.231605059,0.36725969,0.231605059, right,2,1,4, 5.jpg, 8.jpg,1.1709116,2,0.231605059,0.434793002,0.441888062,0.36725969,0
2, test,3, vibration during choice,31,1,3, 5.jpg, 7.jpg,0.233739069,0.456731037,0.456731037, left,1,3,1, 7.jpg, 5.jpg,1.0554286,2,0.233739069,0.473135831,0.456731037,0.401609609,0
2, test,3, vibration during choice,32,2,4, 6.jpg, 8.jpg,0.452508743,0.393803515,0.393803515, left,1,4,2, 8.jpg, 6.jpg,1.5883558,2,0.24432205,0.452508743,0.406064085,0.393803515,0
2, test,3, vibration during choice,33,3,1, 7.jpg, 5.jpg,0.401876712,0.193554899,0.193554899, left,1,1,3, 5.jpg, 7.jpg,1.1195487,2,0.193554899,0.458621481,0.401876712,0.402704902,0
2, test,3, vibration during choice,34,1,3, 5.jpg, 7.jpg,0.204964705,0.409321444,0.409321444, left,1,3,1, 7.jpg, 5.jpg,0.7861606,2,0.204964705,0.43001655,0.409321444,0.416668377,0
2, test,3, vibration during choice,35,3,1, 7.jpg, 5.jpg,0.424862287,0.22048214,0.22048214, left,1,1,3, 5.jpg, 7.jpg,1.4564093,2,0.22048214,0.429045935,0.424862287,0.419699964,0
2, test,3, vibration during choice,36,2,1, 6.jpg, 5.jpg,0.447650766,0.211101934,0.447650766, right,2,2,1, 6.jpg, 5.jpg,1.072469,2,0.211101934,0.447650766,0.423948221,0.428911523,0
2, test,3, vibration during choice,37,2,3, 6.jpg, 7.jpg,0.456165741,0.43257228,0.456165741, right,2,2,3, 6.jpg, 7.jpg,1.1096744,2,0.219326053,0.456165741,0.43257228,0.39910528,1
2, test,3, vibration during choice,38,1,3, 5.jpg, 7.jpg,0.221341547,0.4363313,0.4363313, left,1,3,1, 7.jpg, 5.jpg,1.492241,2,0.221341547,0.433155402,0.4363313,0.390289699,1
2, test,3, vibration during choice,39,3,1, 7.jpg, 5.jpg,0.408906602,0.214118114,0.408906602, right,2,3,1, 7.jpg, 5.jpg,1.2730037,2,0.214118114,0.447660961,0.408906602,0.411267062,0
2, test,3, vibration during choice,40,1,4, 5.jpg, 8.jpg,0.217505069,0.401024283,0.401024283, left,1,4,1, 8.jpg, 5.jpg,1.2124212,2,0.217505069,0.447456341,0.40122215,0.401024283,0
2, test,3, vibration during choice,41,4,1, 8.jpg, 5.jpg,0.370374616,0.249081937,0.249081937, left,1,1,4, 5.jpg, 8.jpg,1.1942778,2,0.249081937,0.458162882,0.382054645,0.370374616,0
2, test,3, vibration during choice,42,1,4, 5.jpg, 8.jpg,0.255981224,0.368787043,0.368787043, left,1,4,1, 8.jpg, 5.jpg,0.5982668,2,0.255981224,0.480978505,0.383924023,0.368787043,0
2, test,3, vibration during choice,43,4,2, 8.jpg, 6.jpg,0.38383929,0.511556199,0.511556199, left,1,2,4, 6.jpg, 8.jpg,2.1036126,2,0.288213763,0.511556199,0.401205729,0.38383929,1
2, test,3, vibration during choice,44,4,2, 8.jpg, 6.jpg,0.362927966,0.530811847,0.362927966, right,2,4,2, 8.jpg, 6.jpg,1.2976578,2,0.294374293,0.530811847,0.350203513,0.362927966,0
2, test,3, vibration during choice,45,2,3, 6.jpg, 7.jpg,0.512913286,0.336134109,0.512913286, right,2,2,3, 6.jpg, 7.jpg,1.9907237,2,0.308994906,0.512913286,0.336134109,0.367033206,1
2, test,3, vibration during choice,46,2,4, 6.jpg, 8.jpg,0.533187647,0.368488345,0.368488345, left,1,4,2, 8.jpg, 6.jpg,1.2796812,2,0.289973458,0.533187647,0.325220477,0.368488345,0
2, test,3, vibration during choice,47,4,1, 8.jpg, 5.jpg,0.34679011,0.29306391,0.29306391, left,1,1,4, 5.jpg, 8.jpg,1.4528793,2,0.29306391,0.537872242,0.357892701,0.34679011,0
2, test,3, vibration during choice,48,1,4, 5.jpg, 8.jpg,0.292135198,0.356952705,0.292135198, right,2,1,4, 5.jpg, 8.jpg,0.7887885,2,0.292135198,0.523160461,0.408168742,0.356952705,1
2, test,3, vibration during choice,49,3,4, 7.jpg, 8.jpg,0.394241012,0.356189797,0.394241012, right,2,3,4, 7.jpg, 8.jpg,1.6280287,2,0.293886334,0.527646571,0.394241012,0.356189797,0
2, test,3, vibration during choice,50,3,4, 7.jpg, 8.jpg,0.386662209,0.348042517,0.348042517, left,1,4,3, 8.jpg, 7.jpg,1.5761107,2,0.304272396,0.548355336,0.386662209,0.348042517,0
3, practice,1, vibration during outcome,1,2,4, 10.jpg, 12.jpg,0.332201416,0.302670058,0.302670058, left,1,4,2, 12.jpg, 10.jpg,2.7572295,2,0.167787674,0.332201416,0.584847675,0.302670058,0
3, practice,1, vibration during outcome,2,2,1, 10.jpg, 9.jpg,0.355471562,0.176264347,0.355471562, right,2,2,1, 10.jpg, 9.jpg,3.2582881,2,0.176264347,0.355471562,0.582595424,0.290755999,0
3, practice,1, vibration during outcome,3,2,3, 10.jpg, 11.jpg,0.3490424,0.578794293,0.578794293, left,1,3,2, 11.jpg, 10.jpg,1.3704198,2,0.206677553,0.3490424,0.578794293,0.275426328,1
3, practice,1, vibration during outcome,4,3,1, 11.jpg, 9.jpg,0.569745321,0.216551625,0.216551625, left,1,1,3, 9.jpg, 11.jpg,1.9846736,2,0.216551625,0.358181966,0.569745321,0.268568422,0
3, practice,1, vibration during outcome,5,3,4, 11.jpg, 12.jpg,0.582527891,0.302042001,0.302042001, left,1,4,3, 12.jpg, 11.jpg,1.5520094,2,0.21991786,0.364707579,0.582527891,0.302042001,0
3, test,1, vibration during outcome,1,1,2, 1.jpg, 2.jpg,0.167787674,0.332201416,0.332201416, left,1,2,1, 2.jpg, 1.jpg,1.4366386,2,0.167787674,0.332201416,0.584847675,0.302670058,1
3, test,1, vibration during outcome,2,1,2, 1.jpg, 2.jpg,0.176264347,0.355471562,0.355471562, left,1,2,1, 2.jpg, 1.jpg,1.3909,2,0.176264347,0.355471562,0.582595424,0.290755999,0
3, test,1, vibration during outcome,3,3,4, 3.jpg, 4.jpg,0.578794293,0.275426328,0.275426328, left,1,4,3, 4.jpg, 3.jpg,1.4396676,2,0.206677553,0.3490424,0.578794293,0.275426328,0
3, test,1, vibration during outcome,4,3,4, 3.jpg, 4.jpg,0.569745321,0.268568422,0.268568422, left,1,4,3, 4.jpg, 3.jpg,0.7090054,2,0.216551625,0.358181966,0.569745321,0.268568422,0
3, test,1, vibration during outcome,5,2,4, 2.jpg, 4.jpg,0.364707579,0.302042001,0.302042001, left,1,4,2, 4.jpg, 2.jpg,2.2359863,2,0.21991786,0.364707579,0.582527891,0.302042001,0
3, test,1, vibration during outcome,6,4,2, 4.jpg, 2.jpg,0.336540119,0.3895513,0.3895513, left,1,2,4, 2.jpg, 4.jpg,0.8842595,2,0.209090036,0.3895513,0.587455063,0.336540119,1
3, test,1, vibration during outcome,7,3,1, 3.jpg, 1.jpg,0.582464681,0.215508938,0.582464681, right,2,3,1, 3.jpg, 1.jpg,1.9744694,2,0.215508938,0.39060737,0.582464681,0.363378709,0
3, test,1, vibration during outcome,8,4,3, 4.jpg, 3.jpg,0.369794555,0.545053358,0.545053358, left,1,3,4, 3.jpg, 4.jpg,2.5482259,2,0.219868403,0.430440014,0.545053358,0.369794555,0
3, test,1, vibration during outcome,9,3,4, 3.jpg, 4.jpg,0.530883085,0.365747455,0.530883085, right,2,3,4, 3.jpg, 4.jpg,2.0314663,2,0.223820368,0.4539861,0.530883085,0.365747455,0
3, test,1, vibration during outcome,10,3,1, 3.jpg, 1.jpg,0.507816291,0.25320591,0.25320591, left,1,1,3, 1.jpg, 3.jpg,2.304088,2,0.25320591,0.485995524,0.507816291,0.36426522,0
3, test,1, vibration during outcome,11,1,2, 1.jpg, 2.jpg,0.272116099,0.489357893,0.272116099, right,2,1,2, 1.jpg, 2.jpg,1.356912,2,0.272116099,0.489357893,0.494989907,0.378430477,0
3, test,1, vibration during outcome,12,4,2, 4.jpg, 2.jpg,0.406276663,0.484630844,0.406276663, right,2,4,2, 4.jpg, 2.jpg,3.6952492,2,0.234286576,0.484630844,0.446302549,0.406276663,0
3, test,1, vibration during outcome,13,1,2, 1.jpg, 2.jpg,0.209829698,0.493007884,0.493007884, left,1,2,1, 2.jpg, 1.jpg,3.7560071,2,0.209829698,0.493007884,0.441292304,0.408056555,1
3, test,1, vibration during outcome,14,2,4, 2.jpg, 4.jpg,0.496165246,0.411853134,0.411853134, left,1,4,2, 4.jpg, 2.jpg,2.0437893,2,0.194746258,0.496165246,0.424090899,0.411853134,0
3, test,1, vibration during outcome,15,2,4, 2.jpg, 4.jpg,0.498060855,0.425420016,0.498060855, right,2,2,4, 2.jpg, 4.jpg,1.7407167,2,0.254919143,0.498060855,0.410741903,0.425420016,1
3, test,1, vibration during outcome,16,2,4, 2.jpg, 4.jpg,0.473753497,0.434571537,0.473753497, right,2,2,4, 2.jpg, 4.jpg,2.7761606,2,0.268446939,0.473753497,0.384469806,0.434571537,1
3, test,1, vibration during outcome,17,4,1, 4.jpg, 1.jpg,0.467037886,0.260713561,0.260713561, left,1,1,4, 1.jpg, 4.jpg,1.7398134,2,0.260713561,0.427927548,0.397409959,0.467037886,0
3, test,1, vibration during outcome,18,3,2, 3.jpg, 2.jpg,0.380302803,0.42862063,0.42862063, left,1,2,3, 2.jpg, 3.jpg,4.0678435,2,0.273570125,0.42862063,0.380302803,0.458160423,1
3, test,1, vibration during outcome,19,4,3, 4.jpg, 3.jpg,0.413401572,0.39026973,0.413401572, right,2,4,3, 4.jpg, 3.jpg,1.6482826,2,0.269452755,0.435371131,0.39026973,0.413401572,1
3, test,1, vibration during outcome,20,4,3, 4.jpg, 3.jpg,0.410963982,0.408454439,0.410963982, right,2,4,3, 4.jpg, 3.jpg,1.272831,2,0.268741649,0.425551488,0.408454439,0.410963982,1
3, test,1, vibration during outcome,21,4,2, 4.jpg, 2.jpg,0.423231262,0.44190032,0.423231262, right,2,4,2, 4.jpg, 2.jpg,1.6838676,2,0.289598518,0.44190032,0.404768464,0.423231262,1
3, test,1, vibration during outcome,22,2,1, 2.jpg, 1.jpg,0.419525056,0.299460569,0.419525056, right,2,2,1, 2.jpg, 1.jpg,1.2199958,2,0.299460569,0.419525056,0.422610309,0.389718337,1
3, test,1, vibration during outcome,23,2,3, 2.jpg, 3.jpg,0.397611772,0.408863932,0.397611772, right,2,2,3, 2.jpg, 3.jpg,1.0599627,2,0.275422902,0.397611772,0.408863932,0.39059245,0
3, test,1, vibration during outcome,24,2,4, 2.jpg, 4.jpg,0.379139537,0.398445672,0.398445672, left,1,4,2, 4.jpg, 2.jpg,1.0549597,2,0.266650787,0.379139537,0.405854252,0.398445672,0
3, test,1, vibration during outcome,25,2,1, 2.jpg, 1.jpg,0.383103254,0.254259812,0.383103254, right,2,2,1, 2.jpg, 1.jpg,11.8673014,2,0.254259812,0.383103254,0.425425396,0.3844496,0
3, test,1, vibration during outcome,26,3,2, 3.jpg, 2.jpg,0.44409494,0.426705428,0.426705428, left,1,2,3, 2.jpg, 3.jpg,1.359557,2,0.251503025,0.426705428,0.44409494,0.389570929,0
3, test,1, vibration during outcome,27,1,3, 1.jpg, 3.jpg,0.260664603,0.476699219,0.476699219, left,1,3,1, 3.jpg, 1.jpg,1.6278816,2,0.260664603,0.434578853,0.476699219,0.351861927,1
3, test,1, vibration during outcome,28,1,4, 1.jpg, 4.jpg,0.254900351,0.358204472,0.358204472, left,1,4,1, 4.jpg, 1.jpg,1.2082891,2,0.254900351,0.456535155,0.471375184,0.358204472,0
3, test,1, vibration during outcome,29,3,2, 3.jpg, 2.jpg,0.45401501,0.431125609,0.431125609, left,1,2,3, 2.jpg, 3.jpg,2.0921602,2,0.270226286,0.431125609,0.45401501,0.360838495,1
3, test,1, vibration during outcome,30,3,4, 3.jpg, 4.jpg,0.441888062,0.36725969,0.36725969, left,1,4,3, 4.jpg, 3.jpg,1.0285478,2,0.231605059,0.434793002,0.441888062,0.36725969,0
3, test,1, vibration during outcome,31,1,3, 1.jpg, 3.jpg,0.233739069,0.456731037,0.233739069, right,2,1,3, 1.jpg, 3.jpg,1.2752764,2,0.233739069,0.473135831,0.456731037,0.401609609,0
3, test,1, vibration during outcome,32,4,2, 4.jpg, 2.jpg,0.393803515,0.452508743,0.393803515, right,2,4,2, 4.jpg, 2.jpg,1.17612,2,0.24432205,0.452508743,0.406064085,0.393803515,0
3, test,1, vibration during outcome,33,1,4, 1.jpg, 4.jpg,0.193554899,0.402704902,0.193554899, right,2,1,4, 1.jpg, 4.jpg,1.3521158,2,0.193554899,0.458621481,0.401876712,0.402704902,0
3, test,1, vibration during outcome,34,1,2, 1.jpg, 2.jpg,0.204964705,0.43001655,0.43001655, left,1,2,1, 2.jpg, 1.jpg,1.1196461,2,0.204964705,0.43001655,0.409321444,0.416668377,1
3, test,1, vibration during outcome,35,1,2, 1.jpg, 2.jpg,0.22048214,0.429045935,0.429045935, left,1,2,1, 2.jpg, 1.jpg,1.2393353,2,0.22048214,0.429045935,0.424862287,0.419699964,0
3, test,1, vibration during outcome,36,3,2, 3.jpg, 2.jpg,0.423948221,0.447650766,0.423948221, right,2,3,2, 3.jpg, 2.jpg,1.4531343,2,0.211101934,0.447650766,0.423948221,0.428911523,0
3, test,1, vibration during outcome,37,4,2, 4.jpg, 2.jpg,0.39910528,0.456165741,0.456165741, left,1,2,4, 2.jpg, 4.jpg,1.0331938,2,0.219326053,0.456165741,0.43257228,0.39910528,0
3, test,1, vibration during outcome,38,4,2, 4.jpg, 2.jpg,0.390289699,0.433155402,0.390289699, right,2,4,2, 4.jpg, 2.jpg,0.7722884,2,0.221341547,0.433155402,0.4363313,0.390289699,0
3, test,1, vibration during outcome,39,3,1, 3.jpg, 1.jpg,0.408906602,0.214118114,0.214118114, left,1,1,3, 1.jpg, 3.jpg,1.2961281,2,0.214118114,0.447660961,0.408906602,0.411267062,0
3, test,1, vibration during outcome,40,2,3, 2.jpg, 3.jpg,0.447456341,0.40122215,0.447456341, right,2,2,3, 2.jpg, 3.jpg,0.7403831,2,0.217505069,0.447456341,0.40122215,0.401024283,1
3, test,1, vibration during outcome,41,4,2, 4.jpg, 2.jpg,0.370374616,0.458162882,0.458162882, left,1,2,4, 2.jpg, 4.jpg,1.153092,2,0.249081937,0.458162882,0.382054645,0.370374616,0
3, test,1, vibration during outcome,42,4,3, 4.jpg, 3.jpg,0.368787043,0.383924023,0.383924023, left,1,3,4, 3.jpg, 4.jpg,1.4044674,2,0.255981224,0.480978505,0.383924023,0.368787043,1
3, test,1, vibration during outcome,43,1,3, 1.jpg, 3.jpg,0.288213763,0.401205729,0.401205729, left,1,3,1, 3.jpg, 1.jpg,1.2512478,2,0.288213763,0.511556199,0.401205729,0.38383929,1
3, test,1, vibration during outcome,44,4,2, 4.jpg, 2.jpg,0.362927966,0.530811847,0.362927966, right,2,4,2, 4.jpg, 2.jpg,1.1839332,2,0.294374293,0.530811847,0.350203513,0.362927966,0
3, test,1, vibration during outcome,45,1,4, 1.jpg, 4.jpg,0.308994906,0.367033206,0.308994906, right,2,1,4, 1.jpg, 4.jpg,1.2772812,2,0.308994906,0.512913286,0.336134109,0.367033206,0
3, test,1, vibration during outcome,46,1,2, 1.jpg, 2.jpg,0.289973458,0.533187647,0.289973458, right,2,1,2, 1.jpg, 2.jpg,0.9278992,2,0.289973458,0.533187647,0.325220477,0.368488345,0
3, test,1, vibration during outcome,47,3,2, 3.jpg, 2.jpg,0.357892701,0.537872242,0.537872242, left,1,2,3, 2.jpg, 3.jpg,0.6000224,2,0.29306391,0.537872242,0.357892701,0.34679011,0
3, test,1, vibration during outcome,48,4,2, 4.jpg, 2.jpg,0.356952705,0.523160461,0.523160461, left,1,2,4, 2.jpg, 4.jpg,1.1838587,2,0.292135198,0.523160461,0.408168742,0.356952705,1
3, test,1, vibration during outcome,49,2,3, 2.jpg, 3.jpg,0.527646571,0.394241012,0.527646571, right,2,2,3, 2.jpg, 3.jpg,1.6174345,2,0.293886334,0.527646571,0.394241012,0.356189797,0
3, test,1, vibration during outcome,50,4,3, 4.jpg, 3.jpg,0.348042517,0.386662209,0.386662209, left,1,3,4, 3.jpg, 4.jpg,1.127984,2,0.304272396,0.548355336,0.386662209,0.348042517,0
3, practice,2, vibration during choice,1,2,3, 10.jpg, 11.jpg,0.332201416,0.584847675,0.584847675, left,1,3,2, 11.jpg, 10.jpg,1.3014378,2,0.167787674,0.332201416,0.584847675,0.302670058,0
3, practice,2, vibration during choice,2,1,3, 9.jpg, 11.jpg,0.176264347,0.582595424,0.582595424, left,1,3,1, 11.jpg, 9.jpg,0.9846531,2,0.176264347,0.355471562,0.582595424,0.290755999,1
3, practice,2, vibration during choice,3,3,2, 11.jpg, 10.jpg,0.578794293,0.3490424,0.3490424, left,1,2,3, 10.jpg, 11.jpg,1.1564333,2,0.206677553,0.3490424,0.578794293,0.275426328,0
3, practice,2, vibration during choice,4,4,3, 12.jpg, 11.jpg,0.268568422,0.569745321,0.569745321, left,1,3,4, 11.jpg, 12.jpg,1.2384371,2,0.216551625,0.358181966,0.569745321,0.268568422,0
3, practice,2, vibration during choice,5,2,3, 10.jpg, 11.jpg,0.364707579,0.582527891,0.364707579, right,2,2,3, 10.jpg, 11.jpg,1.4283949,2,0.21991786,0.364707579,0.582527891,0.302042001,0
3, test,2, vibration during choice,1,2,4, 6.jpg, 8.jpg,0.332201416,0.302670058,0.302670058, left,1,4,2, 8.jpg, 6.jpg,1.4196854,2,0.167787674,0.332201416,0.584847675,0.302670058,0
3, test,2, vibration during choice,2,3,2, 7.jpg, 6.jpg,0.582595424,0.355471562,0.355471562, left,1,2,3, 6.jpg, 7.jpg,1.4565818,2,0.176264347,0.355471562,0.582595424,0.290755999,0
3, test,2, vibration during choice,3,2,3, 6.jpg, 7.jpg,0.3490424,0.578794293,0.3490424, right,2,2,3, 6.jpg, 7.jpg,1.600505,2,0.206677553,0.3490424,0.578794293,0.275426328,1
3, test,2, vibration during choice,4,3,1, 7.jpg, 5.jpg,0.569745321,0.216551625,0.216551625, left,1,1,3, 5.jpg, 7.jpg,1.0614958,2,0.216551625,0.358181966,0.569745321,0.268568422,0
3, test,2, vibration during choice,5,1,2, 5.jpg, 6.jpg,0.21991786,0.364707579,0.364707579, left,1,2,1, 6.jpg, 5.jpg,1.1373515,2,0.21991786,0.364707579,0.582527891,0.302042001,0
3, test,2, vibration during choice,6,1,2, 5.jpg, 6.jpg,0.209090036,0.3895513,0.3895513, left,1,2,1, 6.jpg, 5.jpg,1.4293184,2,0.209090036,0.3895513,0.587455063,0.336540119,0
3, test,2, vibration during choice,7,3,4, 7.jpg, 8.jpg,0.582464681,0.363378709,0.582464681, right,2,3,4, 7.jpg, 8.jpg,1.0765755,2,0.215508938,0.39060737,0.582464681,0.363378709,1
3, test,2, vibration during choice,8,4,1, 8.jpg, 5.jpg,0.369794555,0.219868403,0.369794555, right,2,4,1, 8.jpg, 5.jpg,1.3098812,2,0.219868403,0.430440014,0.545053358,0.369794555,0
3, test,2, vibration during choice,9,4,1, 8.jpg, 5.jpg,0.365747455,0.223820368,0.365747455, right,2,4,1, 8.jpg, 5.jpg,1.2974144,2,0.223820368,0.4539861,0.530883085,0.365747455,1
3, test,2, vibration during choice,10,4,3, 8.jpg, 7.jpg,0.36426522,0.507816291,0.507816291, left,1,3,4, 7.jpg, 8.jpg,1.267386,2,0.25320591,0.485995524,0.507816291,0.36426522,1
3, test,2, vibration during choice,11,4,3, 8.jpg, 7.jpg,0.378430477,0.494989907,0.378430477, right,2,4,3, 8.jpg, 7.jpg,1.006851,2,0.272116099,0.489357893,0.494989907,0.378430477,1
3, test,2, vibration during choice,12,1,4, 5.jpg, 8.jpg,0.234286576,0.406276663,0.406276663, left,1,4,1, 8.jpg, 5.jpg,0.9211868,2,0.234286576,0.484630844,0.446302549,0.406276663,1
3, test,2, vibration during choice,13,4,2, 8.jpg, 6.jpg,0.408056555,0.493007884,0.408056555, right,2,4,2, 8.jpg, 6.jpg,0.8565769,2,0.209829698,0.493007884,0.441292304,0.408056555,0
3, test,2, vibration during choice,14,4,3, 8.jpg, 7.jpg,0.411853134,0.424090899,0.411853134, right,2,4,3, 8.jpg, 7.jpg,1.0998292,2,0.194746258,0.496165246,0.424090899,0.411853134,0
3, test,2, vibration during choice,15,3,2, 7.jpg, 6.jpg,0.410741903,0.498060855,0.498060855, left,1,2,3, 6.jpg, 7.jpg,0.7620622,2,0.254919143,0.498060855,0.410741903,0.425420016,1
3, test,2, vibration during choice,16,4,1, 8.jpg, 5.jpg,0.434571537,0.268446939,0.434571537, right,2,4,1, 8.jpg, 5.jpg,0.9221778,2,0.268446939,0.473753497,0.384469806,0.434571537,1
3, test,2, vibration during choice,17,4,3, 8.jpg, 7.jpg,0.467037886,0.397409959,0.397409959, left,1,3,4, 7.jpg, 8.jpg,0.7936797,2,0.260713561,0.427927548,0.397409959,0.467037886,0
3, test,2, vibration during choice,18,4,2, 8.jpg, 6.jpg,0.458160423,0.42862063,0.458160423, right,2,4,2, 8.jpg, 6.jpg,0.8742096,2,0.273570125,0.42862063,0.380302803,0.458160423,0
3, test,2, vibration during choice,19,2,1, 6.jpg, 5.jpg,0.435371131,0.269452755,0.269452755, left,1,1,2, 5.jpg, 6.jpg,0.833273,2,0.269452755,0.435371131,0.39026973,0.413401572,1
3, test,2, vibration during choice,20,1,2, 5.jpg, 6.jpg,0.268741649,0.425551488,0.268741649, right,2,1,2, 5.jpg, 6.jpg,0.9670764,2,0.268741649,0.425551488,0.408454439,0.410963982,1
3, test,2, vibration during choice,21,3,1, 7.jpg, 5.jpg,0.404768464,0.289598518,0.289598518, left,1,1,3, 5.jpg, 7.jpg,0.852067,2,0.289598518,0.44190032,0.404768464,0.423231262,0
3, test,2, vibration during choice,22,2,1, 6.jpg, 5.jpg,0.419525056,0.299460569,0.419525056, right,2,2,1, 6.jpg, 5.jpg,0.8259458,2,0.299460569,0.419525056,0.422610309,0.389718337,1
3, test,2, vibration during choice,23,1,2, 5.jpg, 6.jpg,0.275422902,0.397611772,0.397611772, left,1,2,1, 6.jpg, 5.jpg,1.0700524,2,0.275422902,0.397611772,0.408863932,0.39059245,0
3, test,2, vibration during choice,24,3,1, 7.jpg, 5.jpg,0.405854252,0.266650787,0.405854252, right,2,3,1, 7.jpg, 5.jpg,0.8631757,2,0.266650787,0.379139537,0.405854252,0.398445672,1
3, test,2, vibration during choice,25,2,4, 6.jpg, 8.jpg,0.383103254,0.3844496,0.3844496, left,1,4,2, 8.jpg, 6.jpg,1.0168292,2,0.254259812,0.383103254,0.425425396,0.3844496,1
3, test,2, vibration during choice,26,1,4, 5.jpg, 8.jpg,0.251503025,0.389570929,0.251503025, right,2,1,4, 5.jpg, 8.jpg,0.9049349,2,0.251503025,0.426705428,0.44409494,0.389570929,0
3, test,2, vibration during choice,27,4,3, 8.jpg, 7.jpg,0.351861927,0.476699219,0.476699219, left,1,3,4, 7.jpg, 8.jpg,1.0369766,2,0.260664603,0.434578853,0.476699219,0.351861927,1
3, test,2, vibration during choice,28,3,4, 7.jpg, 8.jpg,0.471375184,0.358204472,0.471375184, right,2,3,4, 7.jpg, 8.jpg,1.0892984,2,0.254900351,0.456535155,0.471375184,0.358204472,0
3, test,2, vibration during choice,29,1,2, 5.jpg, 6.jpg,0.270226286,0.431125609,0.431125609, left,1,2,1, 6.jpg, 5.jpg,0.8042246,2,0.270226286,0.431125609,0.45401501,0.360838495,0
3, test,2, vibration during choice,30,3,4, 7.jpg, 8.jpg,0.441888062,0.36725969,0.441888062, right,2,3,4, 7.jpg, 8.jpg,0.7085664,2,0.231605059,0.434793002,0.441888062,0.36725969,1
3, test,2, vibration during choice,31,2,3, 6.jpg, 7.jpg,0.473135831,0.456731037,0.456731037, left,1,3,2, 7.jpg, 6.jpg,1.3496555,2,0.233739069,0.473135831,0.456731037,0.401609609,0
3, test,2, vibration during choice,32,3,1, 7.jpg, 5.jpg,0.406064085,0.24432205,0.406064085, right,2,3,1, 7.jpg, 5.jpg,1.035945,2,0.24432205,0.452508743,0.406064085,0.393803515,0
3, test,2, vibration during choice,33,4,3, 8.jpg, 7.jpg,0.402704902,0.401876712,0.401876712, left,1,3,4, 7.jpg, 8.jpg,1.2912102,2,0.193554899,0.458621481,0.401876712,0.402704902,0
3, test,2, vibration during choice,34,2,1, 6.jpg, 5.jpg,0.43001655,0.204964705,0.43001655, right,2,2,1, 6.jpg, 5.jpg,1.0358266,2,0.204964705,0.43001655,0.409321444,0.416668377,0
3, test,2, vibration during choice,35,2,1, 6.jpg, 5.jpg,0.429045935,0.22048214,0.22048214, left,1,1,2, 5.jpg, 6.jpg,1.252351,2,0.22048214,0.429045935,0.424862287,0.419699964,0
3, test,2, vibration during choice,36,1,2, 5.jpg, 6.jpg,0.211101934,0.447650766,0.447650766, left,1,2,1, 6.jpg, 5.jpg,1.1725045,2,0.211101934,0.447650766,0.423948221,0.428911523,0
3, test,2, vibration during choice,37,1,4, 5.jpg, 8.jpg,0.219326053,0.39910528,0.219326053, right,2,1,4, 5.jpg, 8.jpg,1.6930242,2,0.219326053,0.456165741,0.43257228,0.39910528,0
3, test,2, vibration during choice,38,2,3, 6.jpg, 7.jpg,0.433155402,0.4363313,0.433155402, right,2,2,3, 6.jpg, 7.jpg,1.1397296,2,0.221341547,0.433155402,0.4363313,0.390289699,0
3, test,2, vibration during choice,39,4,2, 8.jpg, 6.jpg,0.411267062,0.447660961,0.447660961, left,1,2,4, 6.jpg, 8.jpg,0.8673474,2,0.214118114,0.447660961,0.408906602,0.411267062,1
3, test,2, vibration during choice,40,3,1, 7.jpg, 5.jpg,0.40122215,0.217505069,0.217505069, left,1,1,3, 5.jpg, 7.jpg,0.7474562,2,0.217505069,0.447456341,0.40122215,0.401024283,1
3, test,2, vibration during choice,41,3,1, 7.jpg, 5.jpg,0.382054645,0.249081937,0.249081937, left,1,1,3, 5.jpg, 7.jpg,1.1511728,2,0.249081937,0.458162882,0.382054645,0.370374616,1
3, test,2, vibration during choice,42,4,1, 8.jpg, 5.jpg,0.368787043,0.255981224,0.255981224, left,1,1,4, 5.jpg, 8.jpg,1.3290875,2,0.255981224,0.480978505,0.383924023,0.368787043,0
3, test,2, vibration during choice,43,1,2, 5.jpg, 6.jpg,0.288213763,0.511556199,0.511556199, left,1,2,1, 6.jpg, 5.jpg,1.1252377,2,0.288213763,0.511556199,0.401205729,0.38383929,1
3, test,2, vibration during choice,44,3,4, 7.jpg, 8.jpg,0.350203513,0.362927966,0.350203513, right,2,3,4, 7.jpg, 8.jpg,1.1368405,2,0.294374293,0.530811847,0.350203513,0.362927966,0
3, test,2, vibration during choice,45,2,1, 6.jpg, 5.jpg,0.512913286,0.308994906,0.308994906, left,1,1,2, 5.jpg, 6.jpg,0.7409483,2,0.308994906,0.512913286,0.336134109,0.367033206,1
3, test,2, vibration during choice,46,3,1, 7.jpg, 5.jpg,0.325220477,0.289973458,0.289973458, left,1,1,3, 5.jpg, 7.jpg,0.7324383,2,0.289973458,0.533187647,0.325220477,0.368488345,0
3, test,2, vibration during choice,47,4,2, 8.jpg, 6.jpg,0.34679011,0.537872242,0.34679011, right,2,4,2, 8.jpg, 6.jpg,1.1405903,2,0.29306391,0.537872242,0.357892701,0.34679011,0
3, test,2, vibration during choice,48,4,2, 8.jpg, 6.jpg,0.356952705,0.523160461,0.356952705, right,2,4,2, 8.jpg, 6.jpg,1.7614411,2,0.292135198,0.523160461,0.408168742,0.356952705,1
3, test,2, vibration during choice,49,1,3, 5.jpg, 7.jpg,0.293886334,0.394241012,0.394241012, left,1,3,1, 7.jpg, 5.jpg,1.1978229,2,0.293886334,0.527646571,0.394241012,0.356189797,1
3, test,2, vibration during choice,50,4,2, 8.jpg, 6.jpg,0.348042517,0.548355336,0.548355336, left,1,2,4, 6.jpg, 8.jpg,1.3330642,2,0.304272396,0.548355336,0.386662209,0.348042517,0
3, practice,3, vibration off,1,4,2, 12.jpg, 10.jpg,0.302670058,0.332201416,0.332201416, left,1,2,4, 10.jpg, 12.jpg,1.3779257,2,0.167787674,0.332201416,0.584847675,0.302670058,0
3, practice,3, vibration off,2,1,2, 9.jpg, 10.jpg,0.176264347,0.355471562,0.355471562, left,1,2,1, 10.jpg, 9.jpg,1.9704901,2,0.176264347,0.355471562,0.582595424,0.290755999,0
3, practice,3, vibration off,3,3,2, 11.jpg, 10.jpg,0.578794293,0.3490424,0.3490424, left,1,2,3, 10.jpg, 11.jpg,1.1342157,2,0.206677553,0.3490424,0.578794293,0.275426328,0
3, practice,3, vibration off,4,4,3, 12.jpg, 11.jpg,0.268568422,0.569745321,0.569745321, left,1,3,4, 11.jpg, 12.jpg,0.9731292,2,0.216551625,0.358181966,0.569745321,0.268568422,0
3, practice,3, vibration off,5,1,2, 9.jpg, 10.jpg,0.21991786,0.364707579,0.364707579, left,1,2,1, 10.jpg, 9.jpg,1.177202,2,0.21991786,0.364707579,0.582527891,0.302042001,0
3, test,3, vibration off,1,3,4, 3.jpg, 4.jpg,0.584847675,0.302670058,0.302670058, left,1,4,3, 4.jpg, 3.jpg,1.0536753,2,0.167787674,0.332201416,0.584847675,0.302670058,0
3, test,3, vibration off,2,1,2, 1.jpg, 2.jpg,0.176264347,0.355471562,0.355471562, left,1,2,1, 2.jpg, 1.jpg,1.2322302,2,0.176264347,0.355471562,0.582595424,0.290755999,0
3, test,3, vibration off,3,3,1, 3.jpg, 1.jpg,0.578794293,0.206677553,0.206677553, left,1,1,3, 1.jpg, 3.jpg,1.7559949,2,0.206677553,0.3490424,0.578794293,0.275426328,0
3, test,3, vibration off,4,2,1, 2.jpg, 1.jpg,0.358181966,0.216551625,0.358181966, right,2,2,1, 2.jpg, 1.jpg,1.4466456,2,0.216551625,0.358181966,0.569745321,0.268568422,0
3, test,3, vibration off,5,2,4, 2.jpg, 4.jpg,0.364707579,0.302042001,0.364707579, right,2,2,4, 2.jpg, 4.jpg,0.9083909,2,0.21991786,0.364707579,0.582527891,0.302042001,1
3, test,3, vibration off,6,4,1, 4.jpg, 1.jpg,0.336540119,0.209090036,0.336540119, right,2,4,1, 4.jpg, 1.jpg,1.6841988,2,0.209090036,0.3895513,0.587455063,0.336540119,1
3, test,3, vibration off,7,2,4, 2.jpg, 4.jpg,0.39060737,0.363378709,0.363378709, left,1,4,2, 4.jpg, 2.jpg,1.8853409,2,0.215508938,0.39060737,0.582464681,0.363378709,1
3, test,3, vibration off,8,2,1, 2.jpg, 1.jpg,0.430440014,0.219868403,0.219868403, left,1,1,2, 1.jpg, 2.jpg,1.2339685,2,0.219868403,0.430440014,0.545053358,0.369794555,1
3, test,3, vibration off,9,3,1, 3.jpg, 1.jpg,0.530883085,0.223820368,0.530883085, right,2,3,1, 3.jpg, 1.jpg,1.5690428,2,0.223820368,0.4539861,0.530883085,0.365747455,0
3, test,3, vibration off,10,2,4, 2.jpg, 4.jpg,0.485995524,0.36426522,0.36426522, left,1,4,2, 4.jpg, 2.jpg,0.9446175,2,0.25320591,0.485995524,0.507816291,0.36426522,0
3, test,3, vibration off,11,1,4, 1.jpg, 4.jpg,0.272116099,0.378430477,0.272116099, right,2,1,4, 1.jpg, 4.jpg,0.9245769,2,0.272116099,0.489357893,0.494989907,0.378430477,1
3, test,3, vibration off,12,2,4, 2.jpg, 4.jpg,0.484630844,0.406276663,0.406276663, left,1,4,2, 4.jpg, 2.jpg,1.6645579,2,0.234286576,0.484630844,0.446302549,0.406276663,0
3, test,3, vibration off,13,4,1, 4.jpg, 1.jpg,0.408056555,0.209829698,0.408056555, right,2,4,1, 4.jpg, 1.jpg,1.8435679,2,0.209829698,0.493007884,0.441292304,0.408056555,1
3, test,3, vibration off,14,2,4, 2.jpg, 4.jpg,0.496165246,0.411853134,0.496165246, right,2,2,4, 2.jpg, 4.jpg,1.7053167,2,0.194746258,0.496165246,0.424090899,0.411853134,1
3, test,3, vibration off,15,2,3, 2.jpg, 3.jpg,0.498060855,0.410741903,0.410741903, left,1,3,2, 3.jpg, 2.jpg,1.101502,2,0.254919143,0.498060855,0.410741903,0.425420016,1
3, test,3, vibration off,16,4,1, 4.jpg, 1.jpg,0.434571537,0.268446939,0.268446939, left,1,1,4, 1.jpg, 4.jpg,1.5826829,2,0.268446939,0.473753497,0.384469806,0.434571537,0
3, test,3, vibration off,17,4,2, 4.jpg, 2.jpg,0.467037886,0.427927548,0.427927548, left,1,2,4, 2.jpg, 4.jpg,2.331375,2,0.260713561,0.427927548,0.397409959,0.467037886,0
3, test,3, vibration off,18,3,2, 3.jpg, 2.jpg,0.380302803,0.42862063,0.380302803, right,2,3,2, 3.jpg, 2.jpg,1.0904381,2,0.273570125,0.42862063,0.380302803,0.458160423,1
3, test,3, vibration off,19,1,4, 1.jpg, 4.jpg,0.269452755,0.413401572,0.413401572, left,1,4,1, 4.jpg, 1.jpg,1.6180828,2,0.269452755,0.435371131,0.39026973,0.413401572,0
3, test,3, vibration off,20,4,1, 4.jpg, 1.jpg,0.410963982,0.268741649,0.410963982, right,2,4,1, 4.jpg, 1.jpg,1.6321043,2,0.268741649,0.425551488,0.408454439,0.410963982,0
3, test,3, vibration off,21,4,3, 4.jpg, 3.jpg,0.423231262,0.404768464,0.423231262, right,2,4,3, 4.jpg, 3.jpg,1.1158323,2,0.289598518,0.44190032,0.404768464,0.423231262,0
3, test,3, vibration off,22,2,4, 2.jpg, 4.jpg,0.419525056,0.389718337,0.419525056, right,2,2,4, 2.jpg, 4.jpg,0.8973397,2,0.299460569,0.419525056,0.422610309,0.389718337,0
3, test,3, vibration off,23,3,2, 3.jpg, 2.jpg,0.408863932,0.397611772,0.408863932, right,2,3,2, 3.jpg, 2.jpg,0.7595354,2,0.275422902,0.397611772,0.408863932,0.39059245,0
3, test,3, vibration off,24,1,3, 1.jpg, 3.jpg,0.266650787,0.405854252,0.405854252, left,1,3,1, 3.jpg, 1.jpg,1.6572274,2,0.266650787,0.379139537,0.405854252,0.398445672,1
3, test,3, vibration off,25,1,4, 1.jpg, 4.jpg,0.254259812,0.3844496,0.3844496, left,1,4,1, 4.jpg, 1.jpg,1.0575306,2,0.254259812,0.383103254,0.425425396,0.3844496,0
3, test,3, vibration off,26,2,4, 2.jpg, 4.jpg,0.426705428,0.389570929,0.426705428, right,2,2,4, 2.jpg, 4.jpg,0.3761112,2,0.251503025,0.426705428,0.44409494,0.389570929,1
3, test,3, vibration off,27,4,1, 4.jpg, 1.jpg,0.351861927,0.260664603,0.260664603, left,1,1,4, 1.jpg, 4.jpg,0.7484403,2,0.260664603,0.434578853,0.476699219,0.351861927,0
3, test,3, vibration off,28,3,4, 3.jpg, 4.jpg,0.471375184,0.358204472,0.471375184, right,2,3,4, 3.jpg, 4.jpg,0.39141,2,0.254900351,0.456535155,0.471375184,0.358204472,1
3, test,3, vibration off,29,4,1, 4.jpg, 1.jpg,0.360838495,0.270226286,0.360838495, right,2,4,1, 4.jpg, 1.jpg,0.9665076,2,0.270226286,0.431125609,0.45401501,0.360838495,1
3, test,3, vibration off,30,1,4, 1.jpg, 4.jpg,0.231605059,0.36725969,0.36725969, left,1,4,1, 4.jpg, 1.jpg,0.877078,2,0.231605059,0.434793002,0.441888062,0.36725969,1
3, test,3, vibration off,31,1,4, 1.jpg, 4.jpg,0.233739069,0.401609609,0.401609609, left,1,4,1, 4.jpg, 1.jpg,0.6005469,2,0.233739069,0.473135831,0.456731037,0.401609609,1
3, test,3, vibration off,32,1,3, 1.jpg, 3.jpg,0.24432205,0.406064085,0.24432205, right,2,1,3, 1.jpg, 3.jpg,0.913242,2,0.24432205,0.452508743,0.406064085,0.393803515,0
3, test,3, vibration off,33,3,4, 3.jpg, 4.jpg,0.401876712,0.402704902,0.401876712, right,2,3,4, 3.jpg, 4.jpg,1.0720161,2,0.193554899,0.458621481,0.401876712,0.402704902,0
3, test,3, vibration off,34,1,4, 1.jpg, 4.jpg,0.204964705,0.416668377,0.416668377, left,1,4,1, 4.jpg, 1.jpg,0.641143,2,0.204964705,0.43001655,0.409321444,0.416668377,1
3, test,3, vibration off,35,1,2, 1.jpg, 2.jpg,0.22048214,0.429045935,0.429045935, left,1,2,1, 2.jpg, 1.jpg,0.9974704,2,0.22048214,0.429045935,0.424862287,0.419699964,0
3, test,3, vibration off,36,4,2, 4.jpg, 2.jpg,0.428911523,0.447650766,0.428911523, right,2,4,2, 4.jpg, 2.jpg,0.868197,2,0.211101934,0.447650766,0.423948221,0.428911523,0
3, test,3, vibration off,37,2,1, 2.jpg, 1.jpg,0.456165741,0.219326053,0.219326053, left,1,1,2, 1.jpg, 2.jpg,0.8785363,2,0.219326053,0.456165741,0.43257228,0.39910528,1
3, test,3, vibration off,38,4,3, 4.jpg, 3.jpg,0.390289699,0.4363313,0.390289699, right,2,4,3, 4.jpg, 3.jpg,0.7204022,2,0.221341547,0.433155402,0.4363313,0.390289699,0
3, test,3, vibration off,39,3,2, 3.jpg, 2.jpg,0.408906602,0.447660961,0.447660961, left,1,2,3, 2.jpg, 3.jpg,0.5779006,2,0.214118114,0.447660961,0.408906602,0.411267062,0
3, test,3, vibration off,40,1,2, 1.jpg, 2.jpg,0.217505069,0.447456341,0.217505069, right,2,1,2, 1.jpg, 2.jpg,0.4851151,2,0.217505069,0.447456341,0.40122215,0.401024283,1
3, test,3, vibration off,41,1,3, 1.jpg, 3.jpg,0.249081937,0.382054645,0.249081937, right,2,1,3, 1.jpg, 3.jpg,1.1778214,2,0.249081937,0.458162882,0.382054645,0.370374616,0
3, test,3, vibration off,42,3,1, 3.jpg, 1.jpg,0.383924023,0.255981224,0.255981224, left,1,1,3, 1.jpg, 3.jpg,0.729573,2,0.255981224,0.480978505,0.383924023,0.368787043,1
3, test,3, vibration off,43,4,2, 4.jpg, 2.jpg,0.38383929,0.511556199,0.38383929, right,2,4,2, 4.jpg, 2.jpg,1.0563836,2,0.288213763,0.511556199,0.401205729,0.38383929,0
3, test,3, vibration off,44,2,4, 2.jpg, 4.jpg,0.530811847,0.362927966,0.362927966, left,1,4,2, 4.jpg, 2.jpg,1.1326159,2,0.294374293,0.530811847,0.350203513,0.362927966,0
3, test,3, vibration off,45,1,2, 1.jpg, 2.jpg,0.308994906,0.512913286,0.308994906, right,2,1,2, 1.jpg, 2.jpg,1.4815126,2,0.308994906,0.512913286,0.336134109,0.367033206,0
3, test,3, vibration off,46,2,4, 2.jpg, 4.jpg,0.533187647,0.368488345,0.368488345, left,1,4,2, 4.jpg, 2.jpg,1.1441526,2,0.289973458,0.533187647,0.325220477,0.368488345,1
3, test,3, vibration off,47,1,3, 1.jpg, 3.jpg,0.29306391,0.357892701,0.357892701, left,1,3,1, 3.jpg, 1.jpg,1.1023214,2,0.29306391,0.537872242,0.357892701,0.34679011,1
3, test,3, vibration off,48,1,3, 1.jpg, 3.jpg,0.292135198,0.408168742,0.408168742, left,1,3,1, 3.jpg, 1.jpg,1.4335581,2,0.292135198,0.523160461,0.408168742,0.356952705,1
3, test,3, vibration off,49,3,4, 3.jpg, 4.jpg,0.394241012,0.356189797,0.356189797, left,1,4,3, 4.jpg, 3.jpg,0.7446503,2,0.293886334,0.527646571,0.394241012,0.356189797,0
3, test,3, vibration off,50,2,3, 2.jpg, 3.jpg,0.548355336,0.386662209,0.548355336, right,2,2,3, 2.jpg, 3.jpg,0.7109318,2,0.304272396,0.548355336,0.386662209,0.348042517,1
4, practice,1, vibration off,1,3,2, 7.jpg, 6.jpg,0.413504079,0.615232533,0.413504079, right,2,3,2, 7.jpg, 6.jpg,3.4693023,1,0.511076546,0.615232533,0.413504079,0.466504194,0
4, practice,1, vibration off,2,3,4, 7.jpg, 8.jpg,0.375335495,0.47234587,0.47234587, left,1,4,3, 8.jpg, 7.jpg,0.3128852,1,0.517796443,0.631199867,0.375335495,0.47234587,1
4, practice,1, vibration off,3,1,3, 5.jpg, 7.jpg,0.498939688,0.374984468,0.374984468, left,1,3,1, 7.jpg, 5.jpg,0.4079107,1,0.498939688,0.626315633,0.374984468,0.491193418,0
4, practice,1, vibration off,4,4,1, 8.jpg, 5.jpg,0.486122834,0.498193315,0.486122834, right,2,4,1, 8.jpg, 5.jpg,2.969333,1,0.498193315,0.609226527,0.371343772,0.486122834,1
4, practice,1, vibration off,5,2,1, 6.jpg, 5.jpg,0.620106582,0.472267853,0.620106582, right,2,2,1, 6.jpg, 5.jpg,0.6378761,1,0.472267853,0.620106582,0.35386843,0.463675252,0
4, test,1, vibration off,1,2,3, 2.jpg, 3.jpg,0.615232533,0.413504079,0.413504079, left,1,3,2, 3.jpg, 2.jpg,0.7449476,1,0.511076546,0.615232533,0.413504079,0.466504194,0
4, test,1, vibration off,2,2,4, 2.jpg, 4.jpg,0.631199867,0.47234587,0.631199867, right,2,2,4, 2.jpg, 4.jpg,0.518023,1,0.517796443,0.631199867,0.375335495,0.47234587,1
4, test,1, vibration off,3,3,1, 3.jpg, 1.jpg,0.374984468,0.498939688,0.374984468, right,2,3,1, 3.jpg, 1.jpg,0.4475421,1,0.498939688,0.626315633,0.374984468,0.491193418,0
4, test,1, vibration off,4,4,3, 4.jpg, 3.jpg,0.486122834,0.371343772,0.486122834, right,2,4,3, 4.jpg, 3.jpg,0.5348274,1,0.498193315,0.609226527,0.371343772,0.486122834,1
4, test,1, vibration off,5,4,3, 4.jpg, 3.jpg,0.463675252,0.35386843,0.463675252, right,2,4,3, 4.jpg, 3.jpg,0.591985,1,0.472267853,0.620106582,0.35386843,0.463675252,0
4, test,1, vibration off,6,2,1, 2.jpg, 1.jpg,0.609411022,0.48900464,0.609411022, right,2,2,1, 2.jpg, 1.jpg,0.6066424,1,0.48900464,0.609411022,0.353156918,0.444784776,0
4, test,1, vibration off,7,2,3, 2.jpg, 3.jpg,0.661106815,0.351148204,0.351148204, left,1,3,2, 3.jpg, 2.jpg,0.6703385,1,0.498922937,0.661106815,0.351148204,0.459669582,0
4, test,1, vibration off,8,2,1, 2.jpg, 1.jpg,0.661043011,0.523305174,0.523305174, left,1,1,2, 1.jpg, 2.jpg,1.0327186,1,0.523305174,0.661043011,0.385479761,0.445975487,0
4, test,1, vibration off,9,2,1, 2.jpg, 1.jpg,0.617130773,0.538202722,0.617130773, right,2,2,1, 2.jpg, 1.jpg,0.3553345,1,0.538202722,0.617130773,0.38403906,0.477824508,1
4, test,1, vibration off,10,2,3, 2.jpg, 3.jpg,0.61305354,0.400369013,0.61305354, right,2,2,3, 2.jpg, 3.jpg,0.4021574,1,0.538742055,0.61305354,0.400369013,0.494179332,1
4, test,1, vibration off,11,1,2, 1.jpg, 2.jpg,0.576408806,0.627053837,0.627053837, left,1,2,1, 2.jpg, 1.jpg,0.4975555,1,0.576408806,0.627053837,0.389573429,0.442060048,0
4, test,1, vibration off,12,1,2, 1.jpg, 2.jpg,0.58170588,0.6084257,0.6084257, left,1,2,1, 2.jpg, 1.jpg,0.5500767,1,0.58170588,0.6084257,0.368726719,0.429884006,0
4, test,1, vibration off,13,2,4, 2.jpg, 4.jpg,0.597368238,0.451621205,0.597368238, right,2,2,4, 2.jpg, 4.jpg,0.4563561,1,0.578706679,0.597368238,0.375355878,0.451621205,0
4, test,1, vibration off,14,1,3, 1.jpg, 3.jpg,0.542007718,0.38842331,0.542007718, right,2,1,3, 1.jpg, 3.jpg,1.0464538,1,0.542007718,0.603047222,0.38842331,0.453322749,0
4, test,1, vibration off,15,1,3, 1.jpg, 3.jpg,0.51169699,0.398928367,0.398928367, left,1,3,1, 3.jpg, 1.jpg,0.6596637,1,0.51169699,0.59667375,0.398928367,0.449059956,1
4, test,1, vibration off,16,2,3, 2.jpg, 3.jpg,0.577589974,0.371810296,0.371810296, left,1,3,2, 3.jpg, 2.jpg,0.4711446,1,0.513158928,0.577589974,0.371810296,0.445080478,1
4, test,1, vibration off,17,2,4, 2.jpg, 4.jpg,0.585694186,0.422775713,0.585694186, right,2,2,4, 2.jpg, 4.jpg,0.6987243,1,0.513426935,0.585694186,0.379887863,0.422775713,0
4, test,1, vibration off,18,3,2, 3.jpg, 2.jpg,0.373664559,0.54789599,0.54789599, left,1,2,3, 2.jpg, 3.jpg,0.7353501,1,0.505704724,0.54789599,0.373664559,0.418810463,0
4, test,1, vibration off,19,4,2, 4.jpg, 2.jpg,0.404711898,0.582335652,0.582335652, left,1,2,4, 2.jpg, 4.jpg,0.5833059,1,0.504573157,0.582335652,0.369915918,0.404711898,0
4, test,1, vibration off,20,4,2, 4.jpg, 2.jpg,0.429775493,0.588279021,0.429775493, right,2,4,2, 4.jpg, 2.jpg,0.8356128,1,0.511492418,0.588279021,0.34718102,0.429775493,1
4, test,1, vibration off,21,2,3, 2.jpg, 3.jpg,0.553509108,0.365459609,0.553509108, right,2,2,3, 2.jpg, 3.jpg,0.8005682,1,0.512951285,0.553509108,0.365459609,0.420212923,0
4, test,1, vibration off,22,1,2, 1.jpg, 2.jpg,0.539572991,0.552815737,0.552815737, left,1,2,1, 2.jpg, 1.jpg,0.5168852,1,0.539572991,0.552815737,0.364821817,0.410726764,1
4, test,1, vibration off,23,2,3, 2.jpg, 3.jpg,0.535255398,0.373035803,0.535255398, right,2,2,3, 2.jpg, 3.jpg,0.6321346,1,0.56095771,0.535255398,0.373035803,0.376882621,1
4, test,1, vibration off,24,1,3, 1.jpg, 3.jpg,0.575401102,0.364677663,0.364677663, left,1,3,1, 3.jpg, 1.jpg,0.5022364,1,0.575401102,0.524393705,0.364677663,0.358107826,0
4, test,1, vibration off,25,4,1, 4.jpg, 1.jpg,0.373729847,0.541014126,0.373729847, right,2,4,1, 4.jpg, 1.jpg,0.5846378,1,0.541014126,0.532040408,0.39083719,0.373729847,0
4, test,1, vibration off,26,1,2, 1.jpg, 2.jpg,0.536918816,0.511692898,0.511692898, left,1,2,1, 2.jpg, 1.jpg,0.5796583,1,0.536918816,0.511692898,0.371897574,0.398780507,0
4, test,1, vibration off,27,1,2, 1.jpg, 2.jpg,0.541079589,0.54671574,0.541079589, right,2,1,2, 1.jpg, 2.jpg,0.3778349,1,0.541079589,0.54671574,0.389383809,0.405865749,0
4, test,1, vibration off,28,2,1, 2.jpg, 1.jpg,0.570750529,0.559641612,0.559641612, left,1,1,2, 1.jpg, 2.jpg,0.5488104,1,0.559641612,0.570750529,0.408417182,0.403418308,1
4, test,1, vibration off,29,3,1, 3.jpg, 1.jpg,0.383885215,0.566867971,0.566867971, left,1,1,3, 1.jpg, 3.jpg,0.4819793,1,0.566867971,0.54476025,0.383885215,0.398536524,0
4, test,1, vibration off,30,3,2, 3.jpg, 2.jpg,0.406860111,0.559260499,0.406860111, right,2,3,2, 3.jpg, 2.jpg,0.5622028,1,0.562069061,0.559260499,0.406860111,0.407780991,1
4, test,1, vibration off,31,1,2, 1.jpg, 2.jpg,0.557017169,0.570453061,0.570453061, left,1,2,1, 2.jpg, 1.jpg,0.5249405,1,0.557017169,0.570453061,0.389734908,0.40633374,0
4, test,1, vibration off,32,4,3, 4.jpg, 3.jpg,0.430319959,0.364845558,0.430319959, right,2,4,3, 4.jpg, 3.jpg,0.4139553,1,0.587964414,0.562455492,0.364845558,0.430319959,1
4, test,1, vibration off,33,4,3, 4.jpg, 3.jpg,0.469700007,0.38651511,0.469700007, right,2,4,3, 4.jpg, 3.jpg,0.4533484,1,0.569423526,0.583546956,0.38651511,0.469700007,1
4, test,1, vibration off,34,3,4, 3.jpg, 4.jpg,0.411760625,0.45608609,0.45608609, left,1,4,3, 4.jpg, 3.jpg,0.8242143,1,0.56834307,0.565200904,0.411760625,0.45608609,0
4, test,1, vibration off,35,2,4, 2.jpg, 4.jpg,0.567372701,0.497188985,0.497188985, left,1,4,2, 4.jpg, 2.jpg,0.7828312,1,0.599079702,0.567372701,0.404213812,0.497188985,0
4, test,1, vibration off,36,3,1, 3.jpg, 1.jpg,0.380656038,0.614921267,0.380656038, right,2,3,1, 3.jpg, 1.jpg,0.3923576,1,0.614921267,0.558903517,0.380656038,0.476236411,0
4, test,1, vibration off,37,3,1, 3.jpg, 1.jpg,0.352549374,0.628075493,0.628075493, left,1,1,3, 1.jpg, 3.jpg,0.8310458,1,0.628075493,0.545721743,0.352549374,0.509842719,0
4, test,1, vibration off,38,4,1, 4.jpg, 1.jpg,0.530542784,0.631242143,0.530542784, right,2,4,1, 4.jpg, 1.jpg,0.443816,1,0.631242143,0.538071442,0.347063514,0.530542784,0
4, test,1, vibration off,39,2,3, 2.jpg, 3.jpg,0.562917382,0.341152187,0.341152187, left,1,3,2, 3.jpg, 2.jpg,0.3651845,1,0.600609567,0.562917382,0.341152187,0.525341883,1
4, test,1, vibration off,40,1,3, 1.jpg, 3.jpg,0.598478627,0.340254534,0.340254534, left,1,3,1, 3.jpg, 1.jpg,0.5418977,1,0.598478627,0.574174471,0.340254534,0.519319672,0
4, test,1, vibration off,41,1,3, 1.jpg, 3.jpg,0.60144404,0.358175358,0.60144404, right,2,1,3, 1.jpg, 3.jpg,1.3706396,1,0.60144404,0.580661228,0.358175358,0.531828439,1
4, test,1, vibration off,42,1,2, 1.jpg, 2.jpg,0.630195312,0.582970551,0.582970551, left,1,2,1, 2.jpg, 1.jpg,0.802328,1,0.630195312,0.582970551,0.366861123,0.522351056,1
4, test,1, vibration off,43,3,1, 3.jpg, 1.jpg,0.357029746,0.628568645,0.357029746, right,2,3,1, 3.jpg, 1.jpg,1.0386874,1,0.628568645,0.572586617,0.357029746,0.532129282,1
4, test,1, vibration off,44,2,3, 2.jpg, 3.jpg,0.565568304,0.384631609,0.565568304, right,2,2,3, 2.jpg, 3.jpg,1.1471333,1,0.636994371,0.565568304,0.384631609,0.54344664,1
4, test,1, vibration off,45,2,4, 2.jpg, 4.jpg,0.5781911,0.52618086,0.52618086, left,1,4,2, 4.jpg, 2.jpg,1.0007616,1,0.650015763,0.5781911,0.386636695,0.52618086,1
4, test,1, vibration off,46,1,3, 1.jpg, 3.jpg,0.626001871,0.376640317,0.376640317, left,1,3,1, 3.jpg, 1.jpg,0.8936817,1,0.626001871,0.554193525,0.376640317,0.575008411,1
4, test,1, vibration off,47,2,4, 2.jpg, 4.jpg,0.585886385,0.546233567,0.546233567, left,1,4,2, 4.jpg, 2.jpg,1.0935526,1,0.606772055,0.585886385,0.329837755,0.546233567,1
4, test,1, vibration off,48,4,1, 4.jpg, 1.jpg,0.544792119,0.609756275,0.544792119, right,2,4,1, 4.jpg, 1.jpg,0.8197073,1,0.609756275,0.601875425,0.322472207,0.544792119,0
4, test,1, vibration off,49,3,4, 3.jpg, 4.jpg,0.298351175,0.559135463,0.559135463, left,1,4,3, 4.jpg, 3.jpg,0.8841079,1,0.606158462,0.595767883,0.298351175,0.559135463,1
4, test,1, vibration off,50,1,3, 1.jpg, 3.jpg,0.585330427,0.304980312,0.304980312, left,1,3,1, 3.jpg, 1.jpg,1.1778537,1,0.585330427,0.596690297,0.304980312,0.528689445,0
4, practice,2, vibration during choice,1,3,2, 11.jpg, 10.jpg,0.413504079,0.615232533,0.413504079, right,2,3,2, 11.jpg, 10.jpg,0.9727856,1,0.511076546,0.615232533,0.413504079,0.466504194,0
4, practice,2, vibration during choice,2,2,3, 10.jpg, 11.jpg,0.631199867,0.375335495,0.375335495, left,1,3,2, 11.jpg, 10.jpg,0.7869475,1,0.517796443,0.631199867,0.375335495,0.47234587,1
4, practice,2, vibration during choice,3,2,1, 10.jpg, 9.jpg,0.626315633,0.498939688,0.626315633, right,2,2,1, 10.jpg, 9.jpg,0.6401799,1,0.498939688,0.626315633,0.374984468,0.491193418,0
4, practice,2, vibration during choice,4,3,2, 11.jpg, 10.jpg,0.371343772,0.609226527,0.371343772, right,2,3,2, 11.jpg, 10.jpg,0.7533875,1,0.498193315,0.609226527,0.371343772,0.486122834,0
4, practice,2, vibration during choice,5,3,1, 11.jpg, 9.jpg,0.35386843,0.472267853,0.472267853, left,1,1,3, 9.jpg, 11.jpg,0.6300718,1,0.472267853,0.620106582,0.35386843,0.463675252,0
4, test,2, vibration during choice,1,3,2, 11.jpg, 10.jpg,0.413504079,0.615232533,0.413504079, right,2,3,2, 11.jpg, 10.jpg,0.7139755,1,0.511076546,0.615232533,0.413504079,0.466504194,1
4, test,2, vibration during choice,2,4,2, 12.jpg, 10.jpg,0.47234587,0.631199867,0.631199867, left,1,2,4, 10.jpg, 12.jpg,0.442245,1,0.517796443,0.631199867,0.375335495,0.47234587,1
4, test,2, vibration during choice,3,2,1, 10.jpg, 9.jpg,0.626315633,0.498939688,0.626315633, right,2,2,1, 10.jpg, 9.jpg,0.4377101,1,0.498939688,0.626315633,0.374984468,0.491193418,1
4, test,2, vibration during choice,4,1,2, 9.jpg, 10.jpg,0.498193315,0.609226527,0.609226527, left,1,2,1, 10.jpg, 9.jpg,0.7191354,1,0.498193315,0.609226527,0.371343772,0.486122834,1
4, test,2, vibration during choice,5,2,4, 10.jpg, 12.jpg,0.620106582,0.463675252,0.620106582, right,2,2,4, 10.jpg, 12.jpg,0.6479167,1,0.472267853,0.620106582,0.35386843,0.463675252,1
4, test,2, vibration during choice,6,3,4, 11.jpg, 12.jpg,0.353156918,0.444784776,0.444784776, left,1,4,3, 12.jpg, 11.jpg,1.0301508,1,0.48900464,0.609411022,0.353156918,0.444784776,0
4, test,2, vibration during choice,7,4,1, 12.jpg, 9.jpg,0.459669582,0.498922937,0.459669582, right,2,4,1, 12.jpg, 9.jpg,0.9113126,1,0.498922937,0.661106815,0.351148204,0.459669582,0
4, test,2, vibration during choice,8,3,1, 11.jpg, 9.jpg,0.385479761,0.523305174,0.523305174, left,1,1,3, 9.jpg, 11.jpg,0.4809693,1,0.523305174,0.661043011,0.385479761,0.445975487,1
4, test,2, vibration during choice,9,1,4, 9.jpg, 12.jpg,0.538202722,0.477824508,0.538202722, right,2,1,4, 9.jpg, 12.jpg,0.4061157,1,0.538202722,0.617130773,0.38403906,0.477824508,1
